"Time (s)","Linear Acceleration x (m/s^2)","Linear Acceleration y (m/s^2)","Linear Acceleration z (m/s^2)","Absolute acceleration (m/s^2)"
5.756291677E-3,-4.429590377E-1,-3.184767866E-1,-6.107981005E-1,8.189716065E-1
1.580329164E-2,-1.255882519E-1,-2.806160653E-1,-5.979427046E-1,6.723490634E-1
2.584929165E-2,8.453173488E-3,-1.312951344E-1,-6.040045130E-1,6.181677120E-1
3.589529166E-2,6.706493229E-2,-3.760987580E-2,-1.037094328E-1,1.291040447E-1
4.594229168E-2,1.511074014E-1,3.345601380E-1,6.577231756E-1,7.532354933E-1
5.598829163E-2,9.806453079E-2,6.170145679E-1,1.321357886E0,1.461612224E0
6.603429164E-2,1.847544730E-2,6.501179945E-1,1.476085153E0,1.613016468E0
7.608129166E-2,1.375696354E-1,5.111343563E-1,1.177711971E0,1.291196817E0
8.612729167E-2,3.037188528E-1,3.070466495E-1,5.830820060E-1,7.256083049E-1
9.617329168E-2,2.183345939E-1,2.947581410E-1,-6.472604603E-2,3.724806272E-1
1.062202916E-1,-1.874409762E-1,3.056784010E-1,-5.982397431E-1,6.974698521E-1
1.162662916E-1,-4.566748515E-1,2.817422390E-1,-7.316083002E-1,9.072934003E-1
1.263122917E-1,-6.009502199E-1,2.074820155E-1,-7.857748595E-1,1.010758173E0
1.363592917E-1,-7.223544967E-1,1.729015821E-1,-7.351347560E-1,1.045042624E0
1.464052916E-1,-6.810300310E-1,2.542158866E-1,-4.477096081E-1,8.537397222E-1
1.564512916E-1,-5.069595905E-1,3.549873859E-1,2.605238628E-1,6.714884613E-1
1.664982917E-1,-2.206725300E-1,6.673585099E-1,8.163189599E-1,1.077237388E0
1.765442917E-1,-2.156301105E-1,1.089668983E0,1.007915260E0,1.499922667E0
1.865902917E-1,-5.345027536E-1,1.226882669E0,8.967307466E-1,1.610919088E0
1.966372916E-1,-9.901794123E-1,4.998001134E-1,5.840035272E-1,1.253521257E0
2.066832916E-1,-6.963215232E-1,-2.676375854E-1,8.461178327E-1,1.128011049E0
2.167292917E-1,3.272633245E-1,-5.646200073E-1,7.457907218E-1,9.910100085E-1
2.267762917E-1,1.161276982E0,-4.670428419E-1,6.974123213E-1,1.432856305E0
2.368222916E-1,1.586664771E0,2.116516650E-2,6.089559352E-1,1.699641254E0
2.468682916E-1,1.529466285E0,8.401413935E-1,4.858451486E-1,1.811394542E0
2.569152917E-1,5.224046452E-1,8.607259315E-1,9.709018001E-1,1.398715857E0
2.669612917E-1,-4.441292848E-1,4.440574372E-1,2.001452801E0,2.097677560E0
2.770072917E-1,-7.220361889E-1,6.977657855E-2,1.724896458E0,1.871222279E0
2.870542916E-1,-7.030409241E-1,-1.738710505E-1,7.925362873E-1,1.073597434E0
2.971002916E-1,-3.794967212E-2,-2.639719659E-1,-7.907040623E-1,8.344664706E-1
3.071462917E-1,4.393852926E-1,-4.040268141E-1,-1.206320643E0,1.345922210E0
3.171932917E-1,5.306582093E-1,-1.391944304E0,-1.299571453E0,1.976864447E0
3.272392916E-1,1.804118555E-1,-1.692788227E0,-2.401545024E-1,1.719230818E0
3.372852916E-1,-3.503360720E-1,-1.021668203E0,1.421223944E0,1.785054279E0
3.473322917E-1,1.372026495E-1,-4.476862192E-1,3.609059376E-1,5.911857692E-1
3.573782917E-1,9.408549323E-1,5.386554462E-1,-5.582810408E-1,1.219440615E0
3.674242917E-1,4.771117107E-1,-3.251402736E-2,3.506592768E-1,5.930047849E-1
3.774712916E-1,1.260451022E-1,-7.266071767E-1,-1.436228192E-1,7.513140962E-1
3.875172916E-1,2.697532542E-1,-1.159686466E0,-5.757060358E-1,1.322526733E0
3.975632917E-1,1.000678600E-1,-1.208678532E0,1.051329374E-1,1.217362027E0
4.076102917E-1,-1.322270929E0,-7.954049313E-1,1.097461859E0,1.893539529E0
4.176562916E-1,-2.578750741E0,1.849357367E-1,5.215868390E-1,2.637462691E0
4.277032916E-1,-2.223243977E0,7.875012499E-1,-1.479765390E0,2.784363053E0
4.377492917E-1,-2.075619615E0,-6.805983603E-2,-3.142059803E0,3.766346869E0
4.477952917E-1,-6.148722942E-1,1.200911676E0,-3.618590629E0,3.861923735E0
4.578422916E-1,2.321169198E-1,1.101676240E0,-7.429863971E-1,1.348924604E0
4.678882916E-1,5.928197397E-1,3.965236670E-1,-1.069572687E-2,7.132886237E-1
4.779342916E-1,8.237927248E-1,4.031134790E-1,2.005516031E-1,9.388055581E-1
4.879812917E-1,1.886030738E-1,8.017327881E-1,-4.440200150E-1,9.356817603E-1
4.980272917E-1,-7.137192556E-1,1.394403058E0,-1.412941363E0,2.109539846E0
5.080732916E-1,-1.035701082E0,1.880364566E0,-3.823277968E-1,2.180509615E0
5.181202916E-1,-6.161457447E-1,1.541021991E0,6.269329074E-1,1.774099553E0
5.281662917E-1,2.287448488E-1,1.391092365E0,6.303795487E-1,1.544292896E0
5.382122917E-1,-6.130444546E-1,2.204558176E-1,2.413014337E0,2.499412424E0
5.482592916E-1,-1.807830149E0,6.873986721E-3,3.358076999E0,3.813787911E0
5.583052916E-1,-1.700688693E0,6.283488107E-1,3.442726555E0,3.890954946E0
5.683512916E-1,-4.751659401E-1,1.030223849E0,1.858539249E0,2.177455394E0
5.783982917E-1,2.571561955E-1,1.758333760E0,4.621966696E-1,1.836162488E0
5.884442917E-1,3.646027300E-1,1.500936404E0,-6.669076896E-1,1.682412288E0
5.984902916E-1,3.074937056E-1,9.388932645E-1,-3.965990961E-2,9.887597532E-1
6.085372916E-1,6.545164163E-1,1.056279042E0,1.961233021E0,2.321756257E0
6.185832917E-1,9.835785636E-1,5.357178050E-1,2.568735631E0,2.802288903E0
6.286292917E-1,9.091133221E-1,3.053263986E-1,2.833102576E0,2.991016792E0
6.386762916E-1,1.043061119E0,1.336917327E0,1.813972941E0,2.483107382E0
6.487222916E-1,9.783880634E-1,1.538142237E0,9.459964621E-1,2.053785298E0
6.587682916E-1,-7.081599422E-2,8.202579367E-1,8.552859744E-1,1.187161356E0
6.688152917E-1,-9.746196060E-1,1.982381523E-2,1.318797098E0,1.639970166E0
6.788612917E-1,-7.047272611E-1,-5.110402161E-1,1.740832167E0,1.946355376E0
6.889072916E-1,3.159253541E-1,-3.170605910E-1,6.854671906E-1,8.186583641E-1
6.989542916E-1,1.137102400E0,3.271686727E-1,-1.035287100E0,1.572215185E0
7.090002917E-1,1.434219381E0,3.225686681E-1,-8.221753849E-1,1.684342050E0
7.190462917E-1,1.677499805E0,2.947072703E-1,-2.612360537E-1,1.723108309E0
7.290932916E-1,1.834454276E0,3.950402284E-1,-3.095179752E-2,1.876762448E0
7.391392916E-1,1.630220681E0,1.570012486E-1,-2.762851057E-1,1.660904067E0
7.491852916E-1,7.654580509E-1,-3.593488240E-1,-7.504054175E-1,1.130559992E0
7.592322917E-1,-3.393390673E-1,-7.241010600E-1,-1.235425451E0,1.471648529E0
7.692782917E-1,-1.708204850E-1,-1.100696831E0,-9.690735950E-1,1.476420260E0
7.793242916E-1,2.054131975E-1,-1.014669086E0,-7.263936802E-1,1.264672177E0
7.893712916E-1,2.308188379E-1,-1.055985512E0,-1.348356235E-1,1.089294902E0
7.994170833E-1,2.386796153E-1,-1.120516554E0,-2.877467448E-1,1.181238119E0
8.094630833E-1,4.139741705E-1,-1.210969471E0,-7.295560006E-1,1.473116978E0
8.195100833E-1,5.140203226E-1,-1.249019058E0,-7.790742427E-1,1.559237690E0
8.295560833E-1,2.909695838E-1,-1.144848572E0,-5.912102205E-1,1.320935682E0
8.396030833E-1,-1.992142718E-1,-1.084199497E0,-4.543543839E-1,1.192314045E0
8.496490833E-1,-6.285540479E-1,-1.009939274E0,9.329223437E-3,1.189598488E0
8.596950833E-1,-4.968656152E-1,-8.039827967E-1,1.929581165E-1,9.646225229E-1
8.697420833E-1,6.272026833E-2,-6.219227207E-1,-1.524287260E-1,6.433942952E-1
8.797880833E-1,2.969693387E-1,-6.248293716E-1,-3.007328260E-1,7.543492324E-1
8.898340833E-1,3.690128097E-1,-5.391957289E-1,-3.565222800E-1,7.443188993E-1
8.998810833E-1,5.143057398E-1,-4.915140241E-1,-2.904253360E-1,7.684030881E-1
9.099270833E-1,5.540435636E-1,-5.544248021E-1,-3.129347956E-1,8.439664198E-1
9.199730833E-1,6.417510675E-1,-6.523358434E-1,-2.878537488E-1,9.592946711E-1
9.300200833E-1,6.005230443E-1,-7.290799642E-1,-3.612725580E-1,1.011287982E0
9.400660833E-1,1.729958685E-1,-5.118968332E-1,-6.374961948E-1,8.356837540E-1
9.501120833E-1,-2.474660618E-1,-6.198726869E-1,-2.861510031E-1,7.261983174E-1
9.601590833E-1,-2.929998102E-1,-5.825844079E-1,-2.651536882E-1,7.039601974E-1
9.702050833E-1,-1.671936581E-1,-5.225516295E-1,-4.372348694E-1,7.015612987E-1
9.802510833E-1,-9.682927907E-2,-6.412705725E-1,1.914004548E-1,6.761937523E-1
9.902980833E-1,-1.131300464E-1,-5.429636747E-1,1.155866261E-1,5.665405789E-1
1.000344083E0,-2.526639442E-1,-6.096616942E-1,2.263070897E-1,6.976685093E-1
1.010390083E0,-2.180956438E-1,-4.753821409E-1,-7.186264582E-3,5.230731613E-1
1.020437083E0,-1.351543150E-1,-3.042534345E-1,-2.407216458E-1,4.108329977E-1
1.030483083E0,-1.183184087E-1,-2.997709590E-1,-1.962279526E-1,3.773158930E-1
1.040529083E0,-2.011228396E-1,-2.797179329E-1,-4.166293911E-1,5.406223896E-1
1.050576083E0,-5.854726036E-1,-4.297832143E-1,-1.817081467E-1,7.486719117E-1
1.060622083E0,-7.164460315E-1,-2.639187562E-1,-5.054204571E-1,9.156406852E-1
1.070668083E0,-3.466779443E-1,1.561621732E-1,-1.636130462E0,1.679730666E0
1.080715083E0,-4.352665139E-1,-7.935344070E-1,-9.652829182E-1,1.323225191E0
1.090761083E0,-7.483648854E-1,-8.806871563E-1,3.265424724E-1,1.200953727E0
1.100807083E0,-6.515466886E-1,-3.015596223E-1,8.667596734E-1,1.125488172E0
1.110854083E0,-5.746582878E-1,-2.840343475E-1,3.370592380E-1,7.242351747E-1
1.120900083E0,-4.655792107E-1,-2.562033552E-1,-6.514254320E-1,8.406897490E-1
1.130946083E0,-3.695235640E-1,-3.238486236E-1,-5.123634410E-1,7.098886469E-1
1.140993083E0,-4.132930429E-1,-4.618195242E-1,-1.137751222E0,1.295594942E0
1.151039083E0,-4.978396882E-1,-5.194906121E-1,-1.187915654E0,1.388833486E0
1.161086083E0,-1.552657036E-1,-3.829335684E-1,-5.621840938E-1,6.977080419E-1
1.171132083E0,3.235113124E-1,-4.570300698E-2,-1.200197658E-2,3.269440037E-1
1.181178083E0,5.995676092E-1,2.322297710E-1,6.994895446E-1,9.501039983E-1
1.191225083E0,4.800445645E-1,3.246491075E-1,8.860893989E-1,1.058770159E0
1.201271083E0,6.692699281E-2,1.843942845E-1,5.419702327E-1,5.763785281E-1
1.211317083E0,-3.588719836E-1,-9.707138121E-2,1.769133568E-1,4.117162730E-1
1.221364083E0,-6.908387353E-1,-2.525067455E-1,-9.481609186E-2,7.416251788E-1
1.231410083E0,-7.155855406E-1,-2.716195393E-1,-3.111057866E-1,8.262122309E-1
1.241456083E0,-4.234915007E-1,-1.763730741E-1,-2.019897258E-1,5.012507972E-1
1.251503083E0,-1.426506922E-1,-6.385159492E-2,4.039274845E-3,1.563411715E-1
1.261549083E0,1.064259395E-1,-4.978319407E-3,1.396326884E-1,1.756375584E-1
1.271595083E0,2.858383232E-1,5.413469195E-2,3.190275943E-1,4.317553912E-1
1.281642083E0,4.484085331E-1,2.973010951E-1,5.865985215E-1,7.959622975E-1
1.291688083E0,4.773241108E-1,4.559623682E-1,8.465095961E-1,1.073460984E0
1.301734083E0,3.509842724E-1,6.070275235E-1,8.429416251E-1,1.096459282E0
1.311781083E0,1.731274674E-1,6.175519270E-1,5.835205472E-1,8.670869226E-1
1.321827083E0,4.724205810E-2,4.832004529E-1,3.621987569E-1,6.057247141E-1
1.331873083E0,2.594136410E-2,4.341961080E-1,2.791437364E-1,5.168369570E-1
1.341920083E0,-6.380829812E-2,2.952463835E-1,6.394632895E-2,3.087572815E-1
1.351966083E0,-1.383907032E-1,6.706990242E-2,-1.146042573E-1,1.917928423E-1
1.362012083E0,-2.279079112E-1,-2.357421935E-2,-1.813198185E-1,2.921893845E-1
1.372059083E0,-3.201841736E-1,-5.796637237E-2,-3.341543412E-1,4.664087575E-1
1.382105083E0,-3.383047680E-1,-9.882437646E-2,-4.038730323E-1,5.360315286E-1
1.392151083E0,-2.642732072E-1,-1.194820046E-1,-1.957519344E-1,3.499072696E-1
1.402198083E0,-1.022917571E-1,-3.504762590E-2,-1.207064299E-1,1.620554901E-1
1.412244083E0,9.226632211E-2,4.476628304E-2,-3.877171755E-2,1.096373129E-1
1.422290083E0,1.982112185E-1,1.364523786E-1,4.970016360E-2,2.457174089E-1
1.432337083E0,1.801103768E-1,1.091909051E-1,-3.818231821E-2,2.140567471E-1
1.442383083E0,1.551713807E-1,2.388178289E-2,-8.614584049E-2,1.790798782E-1
1.452429083E0,1.596290239E-1,-7.056887627E-2,-2.087210405E-1,2.720769455E-1
1.462476083E0,1.262122229E-1,-1.572936094E-1,-2.736801163E-1,3.399582487E-1
1.472522083E0,1.521167770E-1,-1.550436008E-1,-1.690827656E-1,2.752580855E-1
1.482568083E0,1.307407453E-1,-4.506858408E-2,8.563713273E-2,1.626592704E-1
1.492615083E0,1.776572140E-1,-3.525286317E-3,1.806426927E-1,2.533896125E-1
1.502661083E0,1.331916697E-1,3.439916968E-3,1.195240863E-1,1.789912319E-1
1.512708083E0,1.606739030E-1,5.744830906E-2,6.957720676E-2,1.842753348E-1
1.522754083E0,1.575207920E-1,9.264270008E-2,1.306782532E-1,2.246603562E-1
1.532800083E0,1.729921774E-1,1.117338592E-1,1.508102167E-1,2.552537369E-1
1.542847083E0,1.260191461E-1,7.966948271E-2,1.446600787E-1,2.077368287E-1
1.552893083E0,9.316293782E-2,9.580312014E-2,1.697598732E-1,2.160462574E-1
1.562939083E0,5.643048698E-2,1.113227999E-1,1.703901847E-1,2.112107495E-1
1.572986083E0,-5.000494058E-2,3.613579273E-2,1.484643320E-1,1.607729687E-1
1.583032083E0,-8.591310304E-2,-5.117950916E-2,-2.475243330E-2,1.030198349E-1
1.593078083E0,-8.985796362E-2,-9.141361535E-2,-2.444440015E-1,2.760140804E-1
1.603125083E0,-9.687754601E-2,-7.727855623E-2,-3.587711191E-1,3.795707445E-1
1.613171083E0,-7.123587912E-2,-6.261666298E-2,-2.221205199E-1,2.415220949E-1
1.623217083E0,6.345842906E-2,4.441545010E-3,7.731206808E-3,6.408175325E-2
1.633264083E0,1.697401205E-1,4.924641967E-2,5.010245204E-2,1.837040393E-1
1.643310083E0,1.922389821E-1,-5.094328165E-2,2.871452490E-2,2.009367267E-1
1.653356083E0,1.044572460E-1,-5.319972217E-2,-3.590190411E-2,1.225988311E-1
1.663403083E0,4.675474749E-3,5.130990207E-2,-1.146171212E-1,1.256648343E-1
1.673449083E0,-1.228823890E-2,9.404193878E-2,-7.233120879E-2,1.192756925E-1
1.683495083E0,-1.051732284E-1,4.713557482E-2,-4.096559286E-3,1.153254186E-1
1.693542083E0,-2.423809759E-1,-2.179783523E-2,-8.013609052E-2,2.562137313E-1
1.703588083E0,-3.061499972E-1,-9.393201113E-2,-1.685343150E-1,3.618768559E-1
1.713634083E0,-2.894566899E-1,-1.415534896E-1,-2.481558506E-1,4.066987729E-1
1.723681083E0,-2.938605021E-1,-1.064035374E-1,-1.947672268E-1,3.682526036E-1
1.733727083E0,-1.957352151E-1,-5.312195420E-2,-1.074753137E-1,2.295324803E-1
1.743773083E0,-2.677751594E-2,-6.600746334E-2,-1.551347991E-1,1.707068436E-1
1.753820083E0,5.625158502E-2,-4.854884684E-2,-1.448519039E-1,1.627983581E-1
1.763866083E0,9.405017970E-4,1.886896491E-2,-7.348899404E-2,7.587855181E-2
1.773912083E0,8.366172401E-2,1.093633980E-1,1.454120672E-1,2.002605956E-1
1.783959083E0,1.863176164E-1,1.560557538E-1,3.131827176E-1,3.964228387E-1
1.794005833E0,2.174001540E-1,1.288533372E-1,3.379562008E-1,4.219957383E-1
1.804051833E0,1.738554457E-1,5.437910557E-2,3.381702089E-1,3.841118240E-1
1.814098833E0,9.341923772E-2,-9.763095975E-3,3.240129304E-1,3.373527102E-1
1.824144833E0,6.287263398E-2,1.487005413E-2,3.138118780E-1,3.203934790E-1
1.834191833E0,-8.044206435E-2,1.882920384E-2,9.878401240E-2,1.287778931E-1
1.844237833E0,-2.438026351E-1,1.138587373E-1,-4.131244969E-1,4.930267608E-1
1.854283833E0,-1.157275532E-1,4.950603604E-1,-1.242002399E0,1.342031142E0
1.864330833E0,-3.267672613E-1,-5.484162033E-2,-2.972443771E-1,4.451276964E-1
1.874376833E0,-3.889420941E-1,-1.636746758E-1,4.120684898E-1,5.898014855E-1
1.884422833E0,-3.291334102E-1,-1.562370175E-1,8.158959138E-1,8.935462773E-1
1.894469833E0,-1.942461485E-1,-1.224769485E-1,9.273800969E-1,9.553878863E-1
1.904515833E0,8.611419244E-2,1.912963378E-1,4.000033450E-1,4.516775609E-1
1.914561833E0,-1.353522616E-2,9.351451993E-3,5.074775076E-1,5.077441016E-1
1.924608833E0,-1.172406664E-1,-4.716130257E-2,1.133085326E-1,1.697303328E-1
1.934654833E0,-2.663692330E-1,-1.486496705E-1,-1.697621938E-1,3.490966847E-1
1.944700833E0,-1.750319786E-1,1.250871456E-1,-6.569510508E-1,6.912797340E-1
1.954747833E0,2.276768731E-2,3.594505656E-1,-1.845327466E0,1.880148008E0
1.964793833E0,-2.845998098E-1,-1.561031163E-1,-6.539420736E-1,7.300722363E-1
1.974839833E0,-3.992322434E-1,-2.542012686E-1,8.735073602E-1,9.934886902E-1
1.984886833E0,-3.293173052E-1,-2.292237175E-1,1.797431753E0,1.841671606E0
1.994932833E0,2.306717895E-2,1.264115399E-1,1.195905290E0,1.202789023E0
2.004978833E0,3.715653386E-1,3.384461975E-1,6.373137617E-1,8.116498385E-1
2.015025833E0,4.696357531E-1,2.538872731E-1,7.855535424E-1,9.497951653E-1
2.025071833E0,3.797519887E-1,2.199821931E-1,2.798781466E-1,5.205146637E-1
2.035117833E0,7.187715422E-2,7.084428012E-2,-1.393368284E-1,1.720464736E-1
2.045164833E0,-1.396775201E-1,-3.848344982E-2,-4.017177486E-1,4.270455890E-1
2.055210833E0,-1.109165737E-1,-8.859291852E-2,-4.713639343E-1,4.922754819E-1
2.065256833E0,-5.694718441E-2,-7.651023209E-2,-4.969455028E-1,5.060154446E-1
2.075303833E0,-2.749779241E-2,-4.921192110E-2,-4.203200805E-1,4.240836142E-1
2.085349833E0,-1.777057459E-2,-3.836942911E-3,-2.496000763E-1,2.502612905E-1
2.095395833E0,1.372100042E-1,1.075460833E-1,-6.505378246E-2,1.860772418E-1
2.105442833E0,2.048980761E-1,2.010003769E-1,1.125121236E-2,2.872472156E-1
2.115488833E0,1.980614933E-1,2.674247468E-1,5.163093248E-2,3.367641660E-1
2.125534833E0,1.640100136E-1,2.630820197E-1,5.713784019E-2,3.152398554E-1
2.135581833E0,1.410676590E-1,2.774860507E-1,1.222650966E-2,3.115254088E-1
2.145627833E0,1.509758208E-1,2.347592765E-1,-1.348286068E-1,3.099747886E-1
2.155674833E0,-3.876910457E-2,1.516779435E-1,-2.226912081E-1,2.722142836E-1
2.165720833E0,-2.176242120E-1,2.816428363E-2,-3.108602035E-1,3.805096459E-1
2.175766833E0,-3.560938253E-1,-7.734462976E-2,-3.821365929E-1,5.280278210E-1
2.185812833E0,-4.585863794E-1,-1.534783012E-1,-3.305781841E-1,5.857806689E-1
2.195859833E0,-4.504958794E-1,-1.422276735E-1,-2.099805125E-1,5.169787850E-1
2.205905833E0,-2.931979395E-1,-1.466879296E-1,-9.972426295E-2,3.426766829E-1
2.215952833E0,-1.579655458E-1,-1.517358309E-1,-6.907432795E-2,2.296696297E-1
2.225998833E0,-8.723960786E-2,-1.731366402E-1,-1.733710953E-1,2.600857205E-1
2.236044833E0,-3.643014522E-2,-2.260206127E-1,-2.598549414E-1,3.463193085E-1
2.246091833E0,-4.084851150E-2,-1.599499995E-1,-3.292017496E-1,3.682748907E-1
2.256137833E0,-4.124066781E-2,-1.072244865E-1,-3.197748685E-1,3.397850051E-1
2.266183833E0,6.242814509E-2,-6.527714610E-2,-1.962676406E-1,2.160540808E-1
2.276230833E0,1.676217657E-1,5.020360887E-2,6.116653522E-2,1.853612789E-1
2.286276833E0,1.224370869E-1,1.212677443E-1,2.039239848E-1,2.669863248E-1
2.296322833E0,1.396295820E-1,8.669198871E-2,1.962150156E-1,2.559536158E-1
2.306369833E0,1.747158635E-1,6.873752832E-2,1.325891232E-1,2.298485509E-1
2.316415833E0,1.968414900E-1,2.267491758E-2,2.201816014E-1,2.962105023E-1
2.326461833E0,1.872006008E-1,-1.466774046E-2,1.937580339E-1,2.698173146E-1
2.336508833E0,1.157797487E-1,-1.803105891E-2,1.335305250E-1,1.776526678E-1
2.346554833E0,4.374155849E-2,1.539688826E-2,1.437736773E-1,1.510670659E-1
2.356600833E0,-2.482351352E-2,5.885514915E-2,2.713622618E-1,2.787787878E-1
2.366647833E0,-6.015895033E-2,1.142733049E-1,2.574283834E-1,2.880049654E-1
2.376693833E0,-1.697996890E-1,1.014597166E-1,2.412923888E-1,3.120064509E-1
2.386739833E0,-2.292906133E-1,8.507932663E-2,1.686956982E-1,2.971042169E-1
2.396786833E0,-4.618635245E-2,7.764400721E-2,-1.725865999E-2,9.197625972E-2
2.406832833E0,1.036012958E-1,6.493859231E-2,-1.124010265E-1,1.660850385E-1
2.416878833E0,2.307172791E-1,6.748856306E-2,-5.133738399E-2,2.458062163E-1
2.426925833E0,2.679526041E-1,1.058036131E-1,-3.237369418E-2,2.898983592E-1
2.436971833E0,1.902697312E-1,1.179091036E-1,-9.294850945E-2,2.423727558E-1
2.447017833E0,1.904278619E-1,8.301525950E-2,-8.476121983E-2,2.243630279E-1
2.457064833E0,3.594534892E-1,1.048727363E-1,-3.632758141E-2,3.761978135E-1
2.467110833E0,5.497564582E-1,1.480222642E-1,-5.616853628E-3,5.693630679E-1
2.477156833E0,6.668462938E-1,1.015275443E-1,-2.410925785E-2,6.749615383E-1
2.487203833E0,8.160384397E-1,1.004095566E-1,6.613182630E-3,8.222192824E-1
2.497249833E0,9.080306371E-1,1.180207855E-1,-7.422808209E-2,9.186720589E-1
2.507295833E0,8.683115244E-1,6.898778915E-2,-3.176944292E-1,9.271752632E-1
2.517342833E0,8.450013068E-1,8.835318267E-2,-7.952809703E-1,1.163746242E0
2.527388833E0,1.206229938E0,1.337340081E-1,-1.004060483E0,1.575123138E0
2.537435833E0,1.608971022E0,2.337974095E-1,-8.501430559E-1,1.834718560E0
2.547481833E0,2.105156387E0,3.476631635E-1,-4.960672510E-1,2.190578875E0
2.557527833E0,2.568752003E0,3.450365943E-1,-1.785727966E-1,2.597965617E0
2.567574833E0,2.857294846E0,2.795109415E-1,9.923426628E-2,2.872648193E0
2.577620833E0,3.116000517E0,2.144361091E-1,4.924068940E-1,3.161946650E0
2.587666833E0,3.194713395E0,1.227640468E-1,8.025513983E-1,3.296263557E0
2.597713833E0,3.038896208E0,4.579188466E-2,5.818669546E-1,3.094439563E0
2.607759833E0,2.787090251E0,-1.499202704E-1,9.948100051E-2,2.792891803E0
2.617805833E0,2.596886466E0,-3.162466586E-1,-5.340027253E-2,2.616616681E0
2.627852833E0,2.447563342E0,-3.186457711E-1,-2.226760054E-1,2.478242531E0
2.637898833E0,2.096660967E0,-2.891021293E-1,-3.243169856E-1,2.141202643E0
2.647944833E0,1.609327118E0,-2.062131697E-1,-1.908063412E-2,1.622597212E0
2.657991833E0,9.758970764E-1,-1.105047745E-1,4.572990417E-1,1.083378430E0
2.668037833E0,2.769168608E-1,8.155579448E-2,8.718806648E-1,9.184281078E-1
2.678083833E0,-2.831341870E-1,2.891559237E-1,9.835765171E-1,1.063578338E0
2.688130833E0,-5.065517472E-1,4.726970994E-1,1.057169573E0,1.263979718E0
2.698176833E0,-7.667998407E-1,4.478119344E-1,1.044829609E0,1.371198905E0
2.708222833E0,-9.664635441E-1,4.347299588E-1,6.210234189E-1,1.228296384E0
2.718269833E0,-1.308480271E0,3.178406096E-1,5.977117395E-1,1.473228630E0
2.728315833E0,-1.367361294E0,3.282755506E-1,5.829030446E-1,1.522241014E0
2.738361833E0,-1.565744165E0,1.476796174E-1,4.239067626E-1,1.628821968E0
2.748408833E0,-1.981093381E0,1.810613716E-1,2.318339145E-1,2.002813313E0
2.758454833E0,-2.293215706E0,2.557361627E-1,1.328803146E-1,2.311254300E0
2.768500833E0,-2.634681698E0,2.401849079E-1,9.950791597E-3,2.645625722E0
2.778547833E0,-3.083675062E0,1.418189532E-1,-5.653435271E-2,3.087452127E0
2.788593833E0,-3.485374392E0,1.083974379E-1,-3.327860928E-1,3.502903259E0
2.798639667E0,-3.798734865E0,3.811565995E-2,-4.741004312E-1,3.828395303E0
2.808685667E0,-3.970841518E0,4.283377826E-2,-1.491905745E-1,3.973874045E0
2.818731667E0,-4.040680954E0,2.302580899E-1,2.776643543E-1,4.056749790E0
2.828778667E0,-4.234062702E0,2.669066834E-1,4.768451508E-1,4.269181120E0
2.838824667E0,-4.524925428E0,1.814303309E-1,2.517460227E-1,4.535553235E0
2.848870667E0,-4.758282542E0,6.948831081E-2,1.564633048E-1,4.761361375E0
2.858917667E0,-4.822672958E0,-5.973515511E-3,1.819805539E-1,4.826108895E0
2.868963667E0,-4.926607216E0,-1.272599709E-1,1.235329556E-1,4.929798591E0
2.879009667E0,-5.003386420E0,-2.185221434E-1,1.500523810E-1,5.010403508E0
2.889056667E0,-4.991229474E0,-1.568620849E-1,2.401532964E-1,4.999465069E0
2.899102667E0,-4.850148147E0,-5.285999894E-2,4.999567823E-1,4.876134536E0
2.909148667E0,-4.433499241E0,6.520347118E-2,9.916597080E-1,4.543518019E0
2.919195667E0,-4.240429735E0,1.933083647E-1,1.254517779E0,4.426333394E0
2.929241667E0,-4.147019588E0,3.646253514E-1,1.406588656E0,4.394225160E0
2.939287667E0,-3.703722873E0,2.905019528E-1,1.592621330E0,4.042078328E0
2.949334667E0,-3.288062439E0,1.325850302E-1,1.626470861E0,3.670741186E0
2.959380667E0,-3.071720138E0,8.502143919E-2,1.338095541E0,3.351595579E0
2.969426667E0,-2.975768791E0,5.958780527E-2,9.166000970E-1,3.114306719E0
2.979473667E0,-3.093012481E0,-9.338938951E-2,2.601788771E-1,3.105340695E0
2.989519667E0,-3.050833591E0,-9.101892829E-2,-5.031481926E-1,3.093384578E0
2.999565667E0,-2.703779415E0,2.024493170E-1,-1.081761720E0,2.919180924E0
3.009612667E0,-2.169658338E0,3.825570077E-1,-1.194254036E0,2.505994787E0
3.019658667E0,-1.435091785E0,5.170002830E-1,-1.003459316E0,1.825844551E0
3.029705667E0,-6.289569942E-1,5.288175058E-1,-6.939661185E-1,1.075557450E0
3.039751667E0,-2.120412357E-2,4.168871802E-1,-3.594119740E-1,5.508370929E-1
3.049797667E0,3.494983122E-1,1.881674927E-1,-5.997244243E-2,4.014383756E-1
3.059844667E0,7.758741347E-1,-8.604762554E-3,1.397707466E-1,7.884101575E-1
3.069890667E0,1.260403587E0,-1.659913427E-1,-6.386445880E-2,1.272890017E0
3.079936667E0,1.893558224E0,-1.122489989E-1,-5.069055768E-1,1.963444893E0
3.089983667E0,2.633702582E0,2.400340497E-2,-9.221807528E-1,2.790588252E0
3.100029667E0,3.391434195E0,1.292795992E-1,-1.040984480E0,3.549956028E0
3.110075667E0,3.870055401E0,2.065528929E-1,-7.790385747E-1,3.953086643E0
3.120122667E0,3.892751369E0,2.678866768E-1,-3.332058863E-1,3.916159171E0
3.130168667E0,4.009543069E0,2.889980489E-1,-3.340865135E-2,4.020083536E0
3.140214667E0,4.365197330E0,1.860759437E-1,4.014534545E-1,4.387566166E0
3.150261667E0,4.586309205E0,1.712362951E-1,8.415511572E-1,4.666022112E0
3.160307667E0,4.586410654E0,1.345555419E-1,8.797299671E-1,4.671958123E0
3.170353667E0,4.711536684E0,1.766578335E-1,7.525471795E-1,4.774527534E0
3.180400667E0,4.708727389E0,1.304531354E-1,5.404441094E-1,4.741435593E0
3.190446667E0,4.589725149E0,-3.652521729E-2,2.125381029E-1,4.594788730E0
3.200492667E0,4.692115157E0,-7.626874208E-2,2.598467553E-1,4.699923606E0
3.210539667E0,4.756065278E0,1.388479829E-2,5.427502513E-1,4.786953890E0
3.220585667E0,4.666653164E0,-5.255360484E-2,7.666097331E-1,4.729493009E0
3.230631667E0,4.414965321E0,-1.376066190E-1,7.796349907E-1,4.485385724E0
3.240678667E0,4.158316408E0,-1.476147133E-1,5.936806691E-1,4.203075326E0
3.250724667E0,4.141163309E0,-1.788160408E-1,2.724580300E-1,4.153967032E0
3.260770667E0,4.327731003E0,-2.170486450E-1,1.010960015E-1,4.334349565E0
3.270817667E0,4.371522848E0,-2.006665009E-1,-1.415224811E-1,4.378413830E0
3.280863667E0,4.200580668E0,-2.793086278E-1,-3.749491954E-1,4.226520810E0
3.290910667E0,3.837164521E0,-3.230194885E-1,-4.975055929E-1,3.882741939E0
3.300956667E0,3.530984721E0,-2.888325727E-1,-7.063834119E-1,3.612513651E0
3.311002667E0,3.435138624E0,-2.329589188E-1,-8.746171618E-1,3.552379822E0
3.321049667E0,3.334726728E0,-1.298233902E-1,-9.035105932E-1,3.457396109E0
3.331095667E0,3.180366667E0,6.005558252E-2,-8.763011599E-1,3.299430638E0
3.341141667E0,3.176182984E0,9.121013224E-2,-7.451750100E-1,3.263700880E0
3.351188667E0,3.130261876E0,-1.479059047E-1,-6.769520366E-1,3.206037996E0
3.361234667E0,2.744182506E0,-2.947020078E-1,-4.357929460E-1,2.794155040E0
3.371280667E0,2.246416054E0,-2.065663415E-1,-7.938530803E-2,2.257289695E0
3.381327667E0,1.679503938E0,-5.176130712E-2,4.502827484E-2,1.680904595E0
3.391373667E0,9.355289228E-1,1.963085711E-2,1.843978294E-1,9.537307248E-1
3.401419667E0,2.506394371E-1,-3.099901378E-2,1.265536821E-1,2.824834522E-1
3.411466667E0,-3.254711894E-2,-1.147171086E-1,-5.942525268E-2,1.332317177E-1
3.421512667E0,7.827786366E-2,-2.563904661E-1,4.653214216E-2,2.720822216E-1
3.431558667E0,3.499608269E-1,-2.774328411E-1,3.436443722E-1,5.635006799E-1
3.441605667E0,3.007527065E-1,-4.017247653E-1,6.841324174E-1,8.484527931E-1
3.451651667E0,-2.517642587E-1,-3.579519242E-1,7.653362095E-1,8.816202899E-1
3.461697667E0,-9.664141352E-1,1.889866877E-1,1.021886305E0,1.419127855E0
3.471744667E0,-1.420566132E0,5.643744242E-1,1.370313699E0,2.052872685E0
3.481790667E0,-1.853318563E0,8.167338198E-1,1.166634128E0,2.337280261E0
3.491836667E0,-2.285321234E0,7.731486744E-1,9.678521848E-1,2.599459534E0
3.501883667E0,-2.904192439E0,5.495751214E-1,8.202661228E-1,3.067442428E0
3.511929667E0,-3.520446576E0,4.191178930E-1,4.067533708E-1,3.568564447E0
3.521976667E0,-4.001351413E0,2.288050568E-1,5.330087535E-1,4.043174893E0
3.532022667E0,-4.003696146E0,5.671863502E-1,6.450776947E-1,4.094802610E0
3.542068667E0,-3.780929801E0,8.054872853E-1,9.478909600E-1,3.980293607E0
3.552115667E0,-3.561406030E0,8.867191440E-1,1.794784133E0,4.085478410E0
3.562161667E0,-3.600494959E0,9.687567490E-1,2.525159841E0,4.503163977E0
3.572207667E0,-3.816057826E0,1.041020733E0,1.734903967E0,4.319249157E0
3.582254667E0,-4.215635494E0,5.973702621E-1,8.479550278E-1,4.341366326E0
3.592300667E0,-4.515210864E0,7.539282918E-2,4.572417390E-1,4.538929745E0
3.602346667E0,-4.702565301E0,-1.028677261E-1,4.785829067E-1,4.727974596E0
3.612393667E0,-4.777595603E0,-1.408442223E-1,8.138470495E-1,4.848464072E0
3.622439667E0,-4.563003373E0,-1.138230693E-1,1.033892977E0,4.680052368E0
3.632485667E0,-4.053215923E0,1.029016399E-1,9.597374189E-1,4.166562610E0
3.642532667E0,-3.684159259E0,3.143381274E-1,9.557905483E-1,3.819080187E0
3.652578667E0,-3.492603597E0,3.784206873E-1,1.040859350E0,3.663996492E0
3.662624667E0,-3.249844745E0,5.344998300E-1,9.848944795E-1,3.437615172E0
3.672671667E0,-3.104021619E0,5.282070565E-1,8.843749952E-1,3.270484985E0
3.682717667E0,-3.177488960E0,3.664987993E-1,7.383267510E-1,3.282664139E0
3.692763667E0,-3.326229554E0,1.202251858E-1,5.480805731E-1,3.373225379E0
3.702810667E0,-3.659043129E0,-1.979697651E-1,1.534438026E-1,3.667605983E0
3.712856667E0,-3.863804143E0,-4.632591087E-1,-2.854014266E-1,3.901928424E0
3.722902667E0,-3.661443703E0,-4.194266260E-1,-5.072155523E-1,3.720128533E0
3.732949667E0,-3.321749125E0,-1.928581291E-1,-2.277244914E-1,3.335126677E0
3.742995667E0,-2.765693535E0,1.880335915E-1,5.569110382E-1,2.827466581E0
3.753042667E0,-2.046667566E0,6.618475091E-1,1.615721340E0,2.690250118E0
3.763088667E0,-1.498847486E0,9.292535448E-1,2.336624558E0,2.927434075E0
3.773134667E0,-1.224053786E0,1.035527274E0,2.392222223E0,2.879817975E0
3.783181667E0,-1.150990049E0,8.544799358E-1,1.855281765E0,2.344564881E0
3.793227667E0,-1.118663571E0,6.515575790E-1,6.934400153E-1,1.468602914E0
3.803274292E0,-1.120042052E0,4.993264890E-1,-3.333532727E-1,1.270805078E0
3.813321292E0,-1.374481887E0,1.303794605E-1,-1.010850270E0,1.711145093E0
3.823367292E0,-1.391236060E0,1.878470653E-1,-1.366476756E0,1.959102606E0
3.833413292E0,-1.092382675E0,3.785159969E-1,-1.286175774E0,1.729399431E0
3.843460292E0,-7.554492257E-1,4.798605233E-1,-1.087541181E0,1.408444346E0
3.853506292E0,-5.383823812E-1,5.188678837E-1,-9.288571036E-1,1.192415610E0
3.863552292E0,-2.014914517E-1,4.946721053E-1,-6.252170420E-1,8.223111616E-1
3.873599292E0,4.598372084E-1,5.079809529E-1,-6.565842111E-2,6.883356267E-1
3.883645292E0,1.049321440E0,5.504223830E-1,5.047561769E-1,1.287951507E0
3.893691292E0,1.274902635E0,4.541327745E-1,1.006308153E0,1.686496191E0
3.903738292E0,1.356073829E0,4.462489736E-1,1.302255617E0,1.932341602E0
3.913784292E0,1.498495922E0,4.813077092E-1,1.244588038E0,2.006525984E0
3.923831292E0,1.793135803E0,4.995135999E-1,7.134176854E-1,1.993442911E0
3.933877292E0,1.958598996E0,3.145363480E-1,5.258868814E-2,1.984391270E0
3.943923292E0,2.149982019E0,-6.735992432E-2,-6.426300502E-1,2.244979604E0
3.953970292E0,2.572768163E0,-2.846752024E-1,-9.735871339E-1,2.765510423E0
3.964016292E0,3.133211796E0,-3.491530341E-1,-6.985797179E-1,3.229076900E0
3.974062292E0,3.572420430E0,-4.083677870E-1,-3.304927782E-1,3.610841654E0
3.984109292E0,4.024397336E0,-4.023843312E-1,-6.629571280E-2,4.045007069E0
3.994155292E0,4.521419145E0,-3.802795172E-1,2.768258818E-1,4.545819636E0
4.004201292E0,4.790870829E0,-1.894252288E-1,6.386504352E-1,4.836961815E0
4.014248292E0,4.901679366E0,-8.830406606E-2,5.920036876E-1,4.938089366E0
4.024294292E0,5.042915937E0,-1.775103575E-1,4.443743563E-1,5.065568047E0
4.034340292E0,5.184389319E0,-2.536832052E-1,2.702571380E-1,5.197623178E0
4.044387292E0,5.208010901E0,-4.007313234E-1,1.272248876E-1,5.224954479E0
4.054433292E0,4.974070820E0,-5.247881895E-1,7.087292234E-2,5.002180138E0
4.064479292E0,4.594990859E0,-5.683511156E-1,1.837779880E-2,4.630043383E0
4.074526292E0,4.206714982E0,-7.150361216E-1,-8.018287738E-2,4.267804692E0
4.084572292E0,3.940090719E0,-7.523518825E-1,-3.082348037E-1,4.023102897E0
4.094618292E0,3.705539019E0,-7.855506188E-1,-5.015063310E-1,3.820944620E0
4.104665292E0,3.486776847E0,-8.888814443E-1,-6.742307425E-1,3.660916565E0
4.114711292E0,3.346023549E0,-8.949830139E-1,-8.754708552E-1,3.572578537E0
4.124757292E0,3.159759032E0,-9.047028404E-1,-1.059384499E0,3.453239043E0
4.134804292E0,3.007943679E0,-8.732109064E-1,-1.134531745E0,3.331273742E0
4.144850292E0,2.771770838E0,-8.770548660E-1,-1.028663228E0,3.083842871E0
4.154897292E0,2.530341643E0,-7.525693989E-1,-9.157149017E-1,2.794194573E0
4.164943292E0,2.353829113E0,-6.763871956E-1,-8.299748397E-1,2.585898174E0
4.174989292E0,1.969247507E0,-5.893765336E-1,-7.497218049E-1,2.188008964E0
4.185036292E0,1.644790480E0,-4.927203047E-1,-7.715003443E-1,1.882371325E0
4.195082292E0,1.607106491E0,-4.250288433E-1,-9.006863880E-1,1.890681560E0
4.205128292E0,1.552897686E0,-6.572334713E-1,-5.651871872E-1,1.778449779E0
4.215175292E0,1.895153344E0,-4.653880799E-1,-2.992043638E-1,1.974263284E0
4.225221292E0,2.110756265E0,-4.423781168E-1,-1.251771013E-2,2.156651827E0
4.235267292E0,2.167831522E0,-6.773250890E-1,5.877504230E-2,2.271941304E0
4.245314292E0,2.292489336E0,-8.004335368E-1,1.851824709E-1,2.435260509E0
4.255360292E0,2.350153407E0,-7.922912890E-1,4.333301353E-1,2.517681777E0
4.265406292E0,2.210503917E0,-6.826735371E-1,5.114384115E-1,2.369375440E0
4.275453292E0,1.898375306E0,-5.096795690E-1,5.133364177E-1,2.031530542E0
4.285499292E0,1.808496293E0,-1.881961441E-1,7.646170020E-1,1.972489744E0
4.295545292E0,1.831598203E0,2.202657831E-1,9.010723042E-1,2.053095295E0
4.305592292E0,1.740634823E0,5.055023181E-1,9.749588907E-1,2.058127066E0
4.315638292E0,1.439117447E0,6.596974880E-1,1.086558849E0,1.920122375E0
4.325684292E0,1.019389178E0,9.130754685E-1,1.386861320E0,1.948395603E0
4.335731292E0,5.770396395E-1,1.314275739E0,1.571486569E0,2.128348068E0
4.345777292E0,9.151948649E-2,1.526639594E0,1.672898338E0,2.266625933E0
4.355823292E0,-5.019649354E-1,1.536275221E0,1.720349663E0,2.360447694E0
4.365870292E0,-1.438533457E0,1.049005106E0,1.494851207E0,2.324730167E0
4.375916292E0,-1.609999401E0,8.668807107E-1,1.293851999E0,2.240007418E0
4.385963292E0,-1.180596987E0,1.328129547E0,1.403179729E0,2.264210832E0
4.396009292E0,-1.021300852E0,1.604109939E0,1.778021336E0,2.603379342E0
4.406055292E0,-9.301229527E-1,1.646991080E0,1.971048449E0,2.731801661E0
4.416102292E0,-8.678460860E-1,1.690952201E0,1.793067391E0,2.612961317E0
4.426148292E0,-1.357939237E0,1.618524495E0,1.360734791E0,2.513010084E0
4.436194292E0,-2.195792030E0,1.423018162E0,1.005977200E0,2.803296891E0
4.446241292E0,-2.974526550E0,1.179799719E0,7.306388319E-1,3.282311483E0
4.456287292E0,-3.744981996E0,8.271956581E-1,4.956614542E-1,3.867146634E0
4.466333292E0,-4.385777190E0,4.968917084E-1,1.249725401E-1,4.415604270E0
4.476380292E0,-4.429449167E0,3.019449538E-1,-1.543302405E-1,4.442410213E0
4.486426292E0,-3.724103928E0,3.104403734E-1,2.532838404E-1,3.745594212E0
4.496472292E0,-3.142344562E0,7.912610096E-1,1.028483133E0,3.399735415E0
4.506519292E0,-3.074398747E0,1.006939652E0,1.857154044E0,3.730264905E0
4.516565292E0,-3.012508893E0,1.018732901E0,2.096778789E0,3.809134789E0
4.526611292E0,-3.375088596E0,8.188692230E-1,1.793733974E0,3.908868302E0
4.536658292E0,-4.299483105E0,4.078403682E-1,1.215822076E0,4.486659342E0
4.546704292E0,-5.230560104E0,3.945701122E-2,4.701021051E-1,5.251791298E0
4.556750292E0,-5.612905442E0,-3.085558158E-1,-2.846985912E-1,5.628584856E0
4.566797292E0,-5.857822502E0,-8.874623251E-1,-2.467934128E-1,5.929804451E0
4.576843292E0,-5.866040179E0,-9.056436574E-1,-1.997678022E-1,5.938899308E0
4.586890292E0,-5.243709907E0,-3.692247713E-1,1.351373216E-1,5.258429672E0
4.596936292E0,-4.536705813E0,2.314971149E-2,7.402060461E-1,4.596753260E0
4.606982292E0,-4.083624076E0,4.084952563E-1,9.627194989E-1,4.215410158E0
4.617029292E0,-3.954172276E0,4.676690787E-1,9.931086481E-1,4.103712653E0
4.627075292E0,-3.784681082E0,4.431306535E-1,8.026917315E-1,3.894160973E0
4.637121292E0,-3.896584511E0,2.704518503E-1,4.736525345E-1,3.934572629E0
4.647168292E0,-4.121833583E0,-4.574744582E-2,-1.858595967E-2,4.122129347E0
4.657214292E0,-4.114342423E0,-1.469288349E-1,-5.311107838E-1,4.151081825E0
4.667260292E0,-3.952073418E0,-1.357425267E-1,-1.012302718E0,4.081919540E0
4.677307292E0,-3.706148298E0,-1.790908599E-1,-1.168176624E0,3.890018685E0
4.687353292E0,-3.344778092E0,-1.829734111E-1,-8.984773099E-1,3.468181257E0
4.697399292E0,-3.063458607E0,-1.103726274E-1,-5.454388011E-1,3.113593460E0
4.707446292E0,-2.802730091E0,-1.088324708E-1,-2.907422551E-1,2.819870836E0
4.717492292E0,-2.394265533E0,-8.915775955E-2,2.008998048E-1,2.404333022E0
4.727538292E0,-1.810411548E0,3.456721866E-1,6.211567354E-1,1.944971703E0
4.737585292E0,-1.205191180E0,8.733044618E-1,8.976481748E-1,1.738079028E0
4.747631292E0,-7.130721150E-1,1.034081258E0,8.964600205E-1,1.543190350E0
4.757677292E0,-3.445671359E-1,6.718345535E-1,8.886434627E-1,1.166094071E0
4.767724292E0,-2.024385362E-1,5.105127972E-1,8.140540409E-1,9.819820052E-1
4.777770292E0,-5.962468293E-1,3.388666123E-1,5.405680339E-1,8.732437584E-1
4.787816292E0,-1.153547182E0,1.592898488E-2,2.846623385E-1,1.188258171E0
4.797863333E0,-1.353717255E0,-7.799016237E-2,5.964342691E-4,1.355962104E0
4.807909333E0,-1.066637093E0,1.511622190E-2,-1.734354329E-1,1.080751145E0
4.817956333E0,-5.058623604E-1,1.489747757E-1,-9.471900981E-2,5.357815808E-1
4.828002333E0,-1.441627913E-1,3.731704724E-1,1.366564647E-1,4.227459062E-1
4.838048333E0,1.459100490E-1,6.647892433E-1,8.107269752E-1,1.058542729E0
4.848095333E0,5.623524936E-1,9.230777156E-1,1.420308563E0,1.784821898E0
4.858141333E0,8.093491519E-1,1.045266981E0,1.497314054E0,1.997392923E0
4.868187333E0,8.851689740E-1,7.969199449E-1,1.314110262E0,1.773553296E0
4.878234333E0,8.607256392E-1,5.142684639E-1,8.797650504E-1,1.333906752E0
4.888280333E0,7.439389086E-1,3.193819356E-1,3.974867034E-1,9.019121908E-1
4.898326333E0,5.747303548E-1,1.257139671E-1,-1.875447643E-1,6.174884783E-1
4.908373333E0,4.822937690E-1,-1.052007651E-1,-3.858016276E-1,6.265120721E-1
4.918419333E0,7.035024887E-1,-1.327288717E-1,-2.223462589E-1,7.496469595E-1
4.928465333E0,1.125484567E0,8.507230997E-2,3.231054060E-1,1.174031478E0
4.938512333E0,1.338733180E0,4.482814658E-1,1.029578902E0,1.747339553E0
4.948558333E0,1.392452573E0,8.072993374E-1,1.696408238E0,2.338473284E0
4.958604333E0,1.378762634E0,9.204470533E-1,1.631014148E0,2.325600208E0
4.968651333E0,1.184851421E0,6.658604532E-1,1.160833690E0,1.787394162E0
4.978697333E0,8.469875329E-1,6.641852260E-2,5.052076550E-1,9.884503405E-1
4.988743333E0,7.790917844E-1,-2.794770277E-1,2.594997961E-2,8.281091829E-1
4.998790333E0,1.003893180E0,-2.259638947E-1,-1.839990127E-1,1.045330969E0
5.008836333E0,1.546119740E0,-9.489621699E-2,-1.698378604E-2,1.549122329E0
5.018882333E0,2.211395179E0,8.174173594E-2,1.841358741E-1,2.220553167E0
5.028929333E0,2.433848698E0,1.728846252E-2,4.528469352E-1,2.475679446E0
5.038975333E0,2.709093364E0,2.997458160E-2,8.039547300E-1,2.826026989E0
5.049022333E0,2.828891703E0,1.615784490E-1,7.646661186E-1,2.934867993E0
5.059068333E0,2.833452532E0,1.110848182E-1,5.643194969E-1,2.891236687E0
5.069114333E0,2.885164137E0,3.173400879E-2,3.730477174E-1,2.909354524E0
5.079161333E0,2.910163323E0,-9.164516509E-2,1.165069779E-1,2.913936046E0
5.089207333E0,2.721338019E0,-2.682445264E-1,-1.425539116E-1,2.738239828E0
5.099253333E0,2.527854238E0,-2.708827901E-1,-8.670832437E-2,2.543804801E0
5.109300333E0,2.672159427E0,-9.898692906E-2,1.173501098E-1,2.676565983E0
5.119346333E0,3.016526807E0,1.259431779E-1,4.239196996E-1,3.048770830E0
5.129392333E0,3.330370553E0,2.638316327E-1,7.171422887E-1,3.416909160E0
5.139439333E0,3.331296459E0,3.051369488E-1,6.570387590E-1,3.409155993E0
5.149485333E0,2.899020284E0,1.073817766E-1,2.780783371E-1,2.914305581E0
5.159531333E0,2.449071047E0,-2.216615134E-1,-2.783063785E-1,2.474780244E0
5.169578333E0,2.186633829E0,-4.886237454E-1,-7.670073438E-1,2.368210491E0
5.179624333E0,2.063572451E0,-6.210549939E-1,-1.141963556E0,2.438877063E0
5.189670333E0,2.034224398E0,-7.088193619E-1,-1.447742529E0,2.595467631E0
5.199717333E0,2.114497314E0,-6.479878539E-1,-1.389776741E0,2.611985172E0
5.209763333E0,2.135028496E0,-3.929065794E-1,-9.389306867E-1,2.365230030E0
5.219809333E0,2.251098796E0,-1.045131326E-1,-2.714909005E-1,2.269818516E0
5.229856333E0,2.455858641E0,-6.998649359E-2,-1.934609771E-2,2.456931835E0
5.239902333E0,2.512709072E0,-1.151117957E-1,-6.644074202E-2,2.516221766E0
5.249948333E0,2.442878553E0,-1.187458402E-1,1.257736087E-2,2.445795247E0
5.259995333E0,2.344314377E0,-8.119619071E-2,2.814697953E-1,2.362546924E0
5.270041333E0,2.135731331E0,-4.341733038E-2,1.447174545E-1,2.141069015E0
5.280088333E0,1.793527713E0,-7.772762239E-2,-1.221295873E-1,1.799360686E0
5.290134333E0,1.443526248E0,-2.424454415E-1,-2.968280554E-1,1.493537651E0
5.300180333E0,1.337615338E0,-2.847114551E-1,-6.092974126E-1,1.497170245E0
5.310227333E0,1.515705155E0,-3.155449927E-1,-8.878681219E-1,1.784724225E0
5.320273333E0,1.760007380E0,-3.144626731E-1,-8.439788481E-1,1.977071836E0
5.330319333E0,1.846124295E0,-3.574859011E-1,-5.722400987E-1,1.965560941E0
5.340366333E0,2.034210219E0,-3.526520079E-1,-2.383629155E-1,2.078266473E0
5.350412333E0,1.881281702E0,-3.099673337E-1,1.298549835E-1,1.911063292E0
5.360458333E0,1.401172672E0,-2.392739117E-2,6.167654765E-1,1.531096676E0
5.370505333E0,8.160803204E-1,4.824373913E-1,1.026298614E0,1.397147727E0
5.380551333E0,1.647368408E-1,6.781606561E-1,9.149547637E-1,1.150731212E0
5.390597333E0,-3.856379787E-1,5.626641136E-1,4.953410268E-1,8.430126264E-1
5.400644333E0,-7.853087633E-1,3.507510781E-1,1.103416554E-1,8.671282797E-1
5.410690333E0,-9.411246351E-1,2.156295258E-1,-3.769676542E-1,1.036492298E0
5.420736333E0,-9.390830067E-1,1.451343244E-1,-6.911642790E-1,1.175010181E0
5.430783333E0,-7.784455939E-1,9.145045280E-4,-6.571942949E-1,1.018765292E0
5.440829333E0,-2.289963704E-1,2.157447159E-2,-4.231302524E-1,4.816056540E-1
5.450875333E0,2.344736583E-1,1.586723828E-1,-1.748436252E-2,2.836556441E-1
5.460922333E0,3.966598706E-1,2.017488205E-1,4.258679187E-1,6.159587029E-1
5.470968333E0,3.428861711E-1,4.267590344E-2,6.454589331E-1,7.321266239E-1
5.481015333E0,3.026820501E-1,1.224021041E-1,8.420341372E-1,9.031169287E-1
5.491061333E0,2.291977156E-1,3.587348664E-1,9.963281250E-1,1.083462980E0
5.501107333E0,1.043606482E-1,4.262316155E-1,8.180090976E-1,9.282798170E-1
5.511154333E0,-1.226418308E-1,3.478678161E-1,3.447962737E-1,5.049133653E-1
5.521200333E0,-3.333306878E-1,2.367783201E-1,-4.843362928E-2,4.117270173E-1
5.531246333E0,-4.198096917E-1,2.055869329E-1,-5.707701087E-2,4.709181982E-1
5.541293333E0,-4.234455635E-1,2.962725699E-1,2.451082635E-1,5.719804557E-1
5.551339333E0,-5.070953190E-1,4.536404389E-1,5.405166149E-1,8.689611737E-1
5.561385333E0,-6.186435290E-1,5.422397894E-1,7.665056527E-1,1.124399716E0
5.571432333E0,-7.158411370E-1,5.388478196E-1,1.036940546E0,1.370412785E0
5.581478333E0,-9.408256231E-1,5.453914386E-1,1.181829872E0,1.606028182E0
5.591524333E0,-1.277151182E0,5.098000216E-1,9.404755211E-1,1.665984816E0
5.601571333E0,-1.577766186E0,3.873283356E-1,6.275863338E-1,1.741618209E0
5.611617333E0,-1.882548940E0,2.198541391E-1,1.481579196E-1,1.901125226E0
5.621663333E0,-2.094566641E0,5.761904776E-2,-3.852110589E-1,2.130473404E0
5.631710333E0,-2.114905157E0,-1.118613285E-1,-7.741924024E-1,2.254930300E0
5.641756333E0,-1.763782635E0,-2.119943118E-1,-7.536908948E-1,1.929746288E0
5.651802333E0,-1.320248085E0,-1.049160057E-1,-3.033991563E-1,1.358717565E0
5.661849333E0,-1.114050995E0,9.030322909E-2,3.081868565E-1,1.159415124E0
5.671895333E0,-9.566867803E-1,2.388336164E-1,7.973684263E-1,1.268103899E0
5.681941333E0,-1.036104687E0,1.748340869E-1,9.375472355E-1,1.408216851E0
5.691988333E0,-1.299511958E0,8.390929878E-2,7.231017709E-1,1.489512762E0
5.702034333E0,-1.485970602E0,-4.921309054E-2,4.123912561E-1,1.542918373E0
5.712081333E0,-1.511680516E0,-1.764987892E-1,7.755746841E-2,1.523924200E0
5.722127333E0,-1.360614923E0,-2.949943686E-1,-1.996414840E-1,1.406467692E0
5.732173333E0,-1.154395467E0,-4.002249545E-1,-3.853572392E-1,1.281135867E0
5.742220333E0,-1.004928356E0,-4.772134888E-1,-4.505338132E-1,1.200247654E0
5.752266333E0,-8.476861290E-1,-3.823663884E-1,-2.248663723E-1,9.567344008E-1
5.762312333E0,-6.685386242E-1,-2.371958113E-1,1.747066176E-1,7.305670039E-1
5.772359333E0,-5.760675764E-1,-4.996621192E-2,4.732362127E-1,7.471967532E-1
5.782405333E0,-6.303364985E-1,8.528865695E-2,6.332850301E-1,8.975790694E-1
5.792451333E0,-6.534473991E-1,2.532370627E-2,6.127893698E-1,8.961839127E-1
5.802498333E0,-5.793405189E-1,-1.098025239E-1,3.618713129E-1,6.918402114E-1
5.812544333E0,-5.369945080E-1,-2.236793876E-1,2.254885161E-1,6.238915298E-1
5.822590333E0,-5.573315261E-1,-2.899499756E-1,2.408503211E-1,6.728285781E-1
5.832637333E0,-4.651316429E-1,-3.436233222E-1,2.836519214E-1,6.441140003E-1
5.842683333E0,-3.462309246E-1,-2.778158337E-1,1.893714345E-1,4.826168571E-1
5.852729333E0,-3.564169570E-1,-2.589819521E-1,1.051902493E-1,4.529566064E-1
5.862776333E0,-5.260865638E-1,-1.868068457E-1,1.480409936E-1,5.775638544E-1
5.872822333E0,-5.745403203E-1,-3.467164993E-2,1.054605642E-2,5.756821364E-1
5.882868333E0,-6.291830622E-1,6.995024085E-3,-7.577638825E-2,6.337683466E-1
5.892915333E0,-6.572492588E-1,4.489492178E-2,-2.096682712E-1,6.913413962E-1
5.902961333E0,-5.621593527E-1,1.734108746E-2,-4.606553435E-1,7.269987598E-1
5.913007333E0,-4.736231157E-1,1.864384711E-2,-5.119026804E-1,6.976466175E-1
5.923054333E0,-5.054762615E-1,5.255652845E-2,-4.717814255E-1,6.934307125E-1
5.933100333E0,-5.066265550E-1,-6.078180671E-3,-5.044474804E-1,7.149648040E-1
5.943147333E0,-3.952935224E-1,4.525978804E-2,-3.655527198E-1,5.403093635E-1
5.953193333E0,-3.156586845E-1,1.877330446E-1,-9.481028119E-2,3.793060645E-1
5.963239333E0,-2.413171481E-1,3.087698239E-1,1.185466329E-2,3.920628817E-1
5.973286333E0,-1.381546676E-1,2.803944558E-1,4.836818615E-2,3.163024572E-1
5.983332333E0,2.662690903E-2,3.198456198E-1,9.065172315E-2,3.335085422E-1
5.993378333E0,1.413794709E-1,3.754894781E-1,1.473615289E-2,4.014942804E-1
6.003425333E0,1.289021523E-1,3.232317424E-1,-2.367186785E-2,3.487905983E-1
6.013471333E0,5.758300059E-2,2.157692742E-1,-6.948012471E-2,2.338796045E-1
6.023517333E0,-1.570501368E-2,1.776372421E-1,-2.137039463E-2,1.796060439E-1
6.033564333E0,-6.501987318E-2,2.101805055E-1,3.396765430E-2,2.226145331E-1
6.043610333E0,-6.403257082E-2,2.735929745E-1,4.752734740E-2,2.849774282E-1
6.053656333E0,-1.452105027E-1,2.735754329E-1,-1.509282847E-2,3.100925685E-1
6.063703333E0,-1.972311155E-1,3.026355100E-1,-1.055071136E-2,3.613857805E-1
6.073749333E0,-1.805425134E-2,4.040350002E-1,4.024989367E-2,4.064360852E-1
6.083795333E0,1.077922694E-1,5.111571604E-1,2.864808226E-1,5.957953320E-1
6.093842333E0,1.409684848E-1,6.090155768E-1,2.527178482E-1,6.742687872E-1
6.103888333E0,1.886435657E-1,6.062767410E-1,1.270260823E-1,6.475287694E-1
6.113935333E0,7.856384732E-2,6.961963928E-1,2.177269220E-1,7.336666191E-1
6.123981333E0,-2.053975197E-1,9.534884995E-1,2.842904556E-1,1.015947599E0
6.134027333E0,-5.363680520E-1,1.136722112E0,2.018096316E-1,1.273010202E0
6.144074333E0,-7.240202954E-1,1.202814944E0,-5.023458998E-2,1.404810554E0
6.154120333E0,-8.203370934E-1,1.254172794E0,-5.638949525E-1,1.601211997E0
6.164166333E0,-9.470899645E-1,1.330342718E0,-9.963503444E-1,1.912983313E0
6.174213333E0,-9.525481211E-1,1.493196445E0,-1.057136829E0,2.062649224E0
6.184259333E0,-6.323696485E-1,1.797731130E0,-8.492238736E-1,2.086362810E0
6.194305333E0,5.827609207E-3,2.224144009E0,-6.952713633E-1,2.330290283E0
6.204352333E0,7.376582681E-1,2.717178310E0,-2.469945753E-1,2.826341099E0
6.214398333E0,1.278992762E0,3.295842744E0,4.620294392E-1,3.565371381E0
6.224444333E0,1.422167831E0,3.646181009E0,7.770540297E-1,3.990114065E0
6.234491333E0,1.352987376E0,3.713048013E0,6.149072313E-1,3.999426370E0
6.244537333E0,1.178194585E0,3.529034382E0,2.253961301E-1,3.727335451E0
6.254583333E0,9.350058894E-1,3.221179647E0,-1.856280470E-1,3.359269579E0
6.264630333E0,8.184876922E-1,3.148492910E0,-3.971288538E-1,3.277291722E0
6.274676333E0,8.430218782E-1,3.150937631E0,-2.571277817E-1,3.271881498E0
6.284722333E0,8.251014778E-1,3.172609751E0,-1.515434484E-1,3.281647528E0
6.294769333E0,5.582140902E-1,3.191699740E0,1.169162647E-1,3.242255329E0
6.304815333E0,3.422005485E-1,3.159871007E0,5.670430934E-1,3.228532773E0
6.314861333E0,2.749510635E-1,3.298102108E0,9.238741064E-1,3.436076100E0
6.324908333E0,2.439769186E-1,3.300983616E0,1.194514822E0,3.518932115E0
6.334954333E0,2.685418208E-1,3.184417618E0,1.359841336E0,3.473010039E0
6.345001333E0,1.763217099E-1,2.907141482E0,1.413642737E0,3.237429031E0
6.355047333E0,5.070063134E-2,2.466114657E0,1.605929593E0,2.943348758E0
6.365093333E0,-9.192555735E-2,1.868651424E0,1.302983011E0,2.279928328E0
6.375140333E0,-4.790867905E-1,1.055427103E0,4.919204056E-1,1.259141060E0
6.385186333E0,-9.030163573E-1,2.529189742E-1,-1.466715209E-1,9.491675743E-1
6.395232333E0,-1.141987895E0,-1.738049769E-1,-6.556412745E-1,1.328235673E0
6.405279333E0,-1.052870847E0,-5.001649797E-1,-4.696297232E-1,1.256683772E0
6.415325333E0,-7.169334700E-1,-8.967430258E-1,-1.005346870E-1,1.152496802E0
6.425371333E0,-1.563292756E-1,-1.050378617E0,3.636172184E-1,1.122475640E0
6.435418333E0,4.523220380E-1,-1.123880457E0,9.724773324E-1,1.553516871E0
6.445464333E0,9.286816871E-1,-1.318202144E0,1.547182617E0,2.234699223E0
6.455510333E0,1.072488840E0,-1.670402162E0,2.065153392E0,2.864495458E0
6.465557333E0,6.790845162E-1,-2.379017456E0,2.387207651E0,3.437970361E0
6.475603333E0,4.010667343E-2,-2.914629427E0,2.452897611E0,3.809643018E0
6.485649333E0,-7.635338053E-1,-3.325675823E0,1.514324774E0,3.733133144E0
6.495696333E0,-1.239927661E0,-3.458411711E0,2.454370232E-1,3.682155823E0
6.505742333E0,-1.373048588E0,-3.691903896E0,-6.288516712E-1,3.988843345E0
6.515788333E0,-1.014590587E0,-3.949922812E0,-4.165381014E-1,4.099364374E0
6.525835333E0,-2.359105385E-1,-4.188674567E0,3.738782778E-1,4.211939385E0
6.535881333E0,2.506820305E-1,-4.392188078E0,7.079025185E-1,4.455926791E0
6.545928333E0,3.110867831E-1,-4.411704329E0,1.048709822E0,4.545294530E0
6.555974333E0,2.570228973E-1,-4.461903260E0,1.085825462E0,4.599310645E0
6.566020333E0,1.601846555E-1,-4.727869127E0,5.639933319E-1,4.764083761E0
6.576067333E0,2.459216295E-1,-4.977976175E0,-4.799102247E-3,4.984049285E0
6.586113333E0,7.808797533E-2,-5.487492607E0,8.456243277E-3,5.488054696E0
6.596159333E0,-2.342933631E-3,-5.824418528E0,-4.910754830E-2,5.824626016E0
6.606206333E0,2.398143406E-1,-5.891708871E0,6.480322927E-2,5.896943597E0
6.616252333E0,2.418021929E-1,-6.018030948E0,-1.538227022E-1,6.024850721E0
6.626298333E0,9.939782387E-3,-6.020481516E0,-5.686345594E-1,6.047283832E0
6.636345333E0,-1.479678120E-2,-5.879182965E0,-7.949640512E-1,5.932704200E0
6.646391333E0,1.462967418E-2,-5.712138539E0,-7.995073378E-1,5.767837784E0
6.656437333E0,5.773769599E-2,-5.530448592E0,-5.154063320E-1,5.554713220E0
6.666484333E0,2.846590403E-2,-5.243658451E0,-5.261558533E-2,5.243999682E0
6.676530333E0,8.576483957E-2,-4.848157462E0,1.860854454E-1,4.852485361E0
6.686576333E0,1.941696596E-1,-4.505826375E0,2.333812340E-1,4.516042513E0
6.696623333E0,3.427027878E-1,-4.242405801E0,3.630732080E-1,4.271682846E0
6.706669333E0,3.602070856E-1,-4.029347296E0,1.747031093E-1,4.049186333E0
6.716715333E0,3.104090177E-1,-4.080219827E0,-4.091027820E-1,4.112409595E0
6.726762333E0,4.245254711E-1,-4.170542936E0,-1.022303650E0,4.314945540E0
6.736808333E0,3.745710267E-1,-4.144572528E0,-8.631064792E-1,4.250027963E0
6.746854333E0,3.286809819E-1,-4.081377575E0,-1.065501563E-1,4.095976933E0
6.756901333E0,5.312502399E-1,-3.579139173E0,3.467761409E-1,3.634930223E0
6.766947333E0,1.121341157E0,-2.327180135E0,8.894117868E-1,2.732073699E0
6.776994333E0,1.422182303E0,-1.185431757E0,2.014721449E0,2.736229791E0
6.787040333E0,1.414962015E0,-4.353731525E-1,2.269590908E0,2.709743563E0
6.797085667E0,1.182860736E0,-4.484054267E-1,2.320651280E0,2.643037895E0
6.807132667E0,2.817563637E-1,-1.011926157E0,2.377366933E0,2.599087288E0
6.817178667E0,-1.124229828E0,-1.432246238E0,1.189637074E0,2.174961692E0
6.827224667E0,-1.602861997E0,-1.092131245E0,3.615101011E-1,1.972969030E0
6.837271667E0,-1.130473046E0,-7.416058695E-1,-2.813948413E-1,1.380989367E0
6.847317667E0,-1.471223047E-1,1.557043362E-1,-8.368791588E-1,8.638608333E-1
6.857363667E0,8.843200314E-1,1.053353680E0,-6.135495079E-1,1.505994320E0
6.867410667E0,1.140538882E0,1.500496693E0,5.701959121E-1,1.969122303E0
6.877456667E0,1.138766664E0,1.998823893E0,9.465893698E-1,2.487592793E0
6.887502667E0,7.288581354E-1,2.090881287E0,9.181181073E-1,2.397073131E0
6.897549667E0,-3.416780267E-1,2.025593031E0,9.624271381E-1,2.268487822E0
6.907595667E0,-9.404237732E-1,2.601844904E0,6.366425014E-1,2.838891941E0
6.917641667E0,-9.363404433E-1,3.324392359E0,-5.274457490E-1,3.493782621E0
6.927688667E0,-1.014913208E0,3.485246338E0,-1.487677258E0,3.923031287E0
6.937734667E0,-9.797200591E-1,3.510965316E0,-1.666841792E0,4.008128043E0
6.947780667E0,-4.908142952E-1,4.033153834E0,-2.271087795E0,4.654574985E0
6.957827667E0,-1.202186442E-1,4.318325465E0,-1.799543182E0,4.679822967E0
6.967873667E0,-2.947587989E-1,4.307133894E0,-4.384926786E-1,4.339419427E0
6.977920667E0,-3.914771544E-1,4.791340653E0,7.304669237E-1,4.862487176E0
6.987966667E0,-3.214570759E-1,5.380174565E0,1.300072852E0,5.544348692E0
6.998012667E0,7.062449791E-3,5.665327485E0,-2.820275100E-1,5.672347389E0
7.008059667E0,3.042643250E-1,6.053941623E0,8.870386943E-2,6.062231795E0
7.018105667E0,4.116489521E-1,6.440870009E0,-2.681136218E-1,6.459577869E0
7.028151667E0,5.588443469E-1,6.488103232E0,-7.008088227E-1,6.549726984E0
7.038198667E0,8.107983112E-1,6.635083523E0,-3.215905020E-1,6.692170627E0
7.048244667E0,1.006589258E0,6.900119097E0,2.138297528E-1,6.976430939E0
7.058290667E0,8.144110134E-1,7.059708323E0,8.591810971E-1,7.158277661E0
7.068337667E0,3.006371509E-1,6.887023088E0,1.509780464E0,7.056975752E0
7.078383667E0,-1.436500087E-2,6.535459832E0,1.811440658E0,6.781869862E0
7.088429667E0,-1.969484758E-1,6.124700534E0,1.751959126E0,6.373390472E0
7.098476667E0,-3.563241690E-1,5.644357615E0,1.141680551E0,5.769677138E0
7.108522667E0,-3.470810732E-1,5.099145686E0,5.031299566E-1,5.135649107E0
7.118568667E0,-1.143254913E-1,4.664564247E0,8.129376613E-2,4.666673184E0
7.128615667E0,1.241397870E-1,4.614796255E0,-3.227524169E-1,4.627734250E0
7.138661667E0,3.989898398E-1,4.754978573E0,-3.356374144E-1,4.783478503E0
7.148707667E0,4.914451001E-1,4.897506793E0,9.996326789E-2,4.923117278E0
7.158754667E0,8.853963576E-2,5.058627405E0,9.537598103E-1,5.148515152E0
7.168800667E0,-5.595569763E-2,5.219197209E0,1.620130726E0,5.465160027E0
7.178847667E0,2.724421694E-1,5.123305212E0,1.550034889E0,5.359579198E0
7.188893667E0,5.071888013E-1,4.629613100E0,1.036587447E0,4.771275665E0
7.198939667E0,3.529027073E-1,3.959048561E0,5.570478996E-1,4.013590437E0
7.208986667E0,2.272865532E-1,3.336846929E0,1.359126806E-2,3.344606303E0
7.219032667E0,4.860071895E-1,3.022040439E0,-1.611814231E-1,3.065111883E0
7.229078667E0,6.426533660E-1,2.761936406E0,2.901634173E-1,2.850524666E0
7.239125667E0,5.862438148E-1,2.505718433E0,5.807021892E-1,2.638090542E0
7.249171667E0,-1.814688129E-1,2.090024670E0,1.107378445E0,2.372218597E0
7.259217667E0,-7.500911296E-1,1.896660172E0,2.074679822E0,2.909338906E0
7.269264667E0,-4.859122088E-1,1.641152635E0,2.736823200E0,3.227955061E0
7.279310667E0,-5.619229060E-2,9.419361556E-1,2.859391365E0,3.011066302E0
7.289356667E0,5.215581145E-1,3.587465608E-1,2.894246618E0,2.962665260E0
7.299403667E0,1.004665377E0,-2.564425063E-1,2.299114670E0,2.522110930E0
7.309449667E0,1.136213185E0,-1.136097044E0,1.495626547E0,2.195129988E0
7.319495667E0,9.632477948E-1,-2.105098792E0,1.382981253E0,2.696650586E0
7.329542667E0,7.088385116E-1,-2.716024654E0,7.000123588E-1,2.892967207E0
7.339588667E0,9.858423863E-2,-2.994213540E0,-6.195475817E-2,2.996476592E0
7.349634667E0,-2.985553960E-1,-3.181257198E0,-6.472736165E-2,3.195891474E0
7.359681667E0,-4.317715600E-2,-3.070858843E0,3.769580063E-1,3.094210018E0
7.369727667E0,3.200564850E-1,-2.868799535E0,6.453431582E-1,2.957856440E0
7.379774667E0,-7.669562537E-2,-3.491453158E0,1.297022359E0,3.725371709E0
7.389820667E0,-9.904505404E-2,-4.400389382E0,1.298752112E0,4.589116874E0
7.399866667E0,2.574987327E-1,-4.995199149E0,1.330687265E0,5.175813823E0
7.409913667E0,3.796044561E-1,-5.341475353E0,1.115314286E0,5.469861465E0
7.419959667E0,1.414268608E-1,-5.685260058E0,4.446374810E-1,5.704374284E0
7.430005667E0,-2.948675205E-1,-6.131475118E0,1.426204602E-1,6.140217795E0
7.440052667E0,-5.890667774E-1,-6.569570149E0,2.754998977E-1,6.601677954E0
7.450098667E0,-3.160728501E-1,-6.632230666E0,6.175491495E-1,6.668414550E0
7.460144667E0,4.032286326E-1,-6.253289577E0,1.060083533E0,6.355312814E0
7.470191667E0,9.027706280E-1,-6.053584943E0,1.899654823E0,6.408554745E0
7.480237667E0,1.070316892E0,-6.133704661E0,2.375563214E0,6.664173745E0
7.490283667E0,1.108878986E0,-6.385402737E0,2.146725412E0,6.827254991E0
7.500330667E0,9.592297344E-1,-6.671749658E0,1.626834266E0,6.933898969E0
7.510376667E0,5.016567140E-1,-6.963519872E0,1.371078515E0,7.114922681E0
7.520422667E0,-2.089294206E-2,-7.122372349E0,1.022687519E0,7.195450935E0
7.530469667E0,-3.205496611E-1,-7.063175722E0,7.947082356E-2,7.070892375E0
7.540515667E0,-4.351854569E-1,-6.944791825E0,-6.722260246E-1,6.990808802E0
7.550561667E0,-6.094442508E-1,-7.087137027E0,-8.472169630E-1,7.163568253E0
7.560608667E0,-7.243978062E-1,-7.089174197E0,-5.799055061E-1,7.149645682E0
7.570654667E0,-7.138507448E-1,-6.639050859E0,-5.138635442E-2,6.677515986E0
7.580700667E0,-5.468093884E-1,-5.880897369E0,2.845572348E-1,5.913114847E0
7.590747667E0,-2.594840086E-1,-5.324641219E0,3.442283629E-1,5.342062263E0
7.600793667E0,1.166260783E-1,-5.184760033E0,1.744420311E-1,5.189004554E0
7.610840667E0,4.673251528E-1,-5.364283002E0,1.487579902E-1,5.386655165E0
7.620886667E0,5.685164091E-1,-5.563194169E0,-2.201769054E-3,5.592168194E0
7.630932667E0,5.233450236E-1,-5.530640965E0,7.092219427E-2,5.555799623E0
7.640979667E0,3.505200766E-1,-5.184060121E0,1.322486691E-1,5.197579569E0
7.651025667E0,-1.703031526E-1,-4.743651931E0,3.812035234E-1,4.761990438E0
7.661071667E0,-1.741483181E-1,-4.104009808E0,8.190241742E-1,4.188558790E0
7.671118667E0,8.941072471E-2,-3.538103998E0,1.716574262E0,3.933548192E0
7.681164667E0,2.195853499E-1,-2.926785203E0,2.168251644E0,3.649055295E0
7.691210667E0,3.948773834E-1,-2.300301070E0,1.620995383E0,2.841643748E0
7.701257667E0,1.841221697E-1,-2.146336280E0,1.117809877E0,2.426965044E0
7.711303667E0,-2.761907828E-1,-1.875500268E0,6.538732226E-1,2.005326107E0
7.721349667E0,-5.449258541E-1,-1.152033631E0,2.100506973E-1,1.291606352E0
7.731396667E0,-7.720670857E-1,-5.363861418E-1,1.444952969E-1,9.511448726E-1
7.741442667E0,-9.557337572E-1,-9.610483646E-2,1.770688927E-1,9.767377064E-1
7.751488667E0,-1.080727494E0,2.653302741E-1,1.540062317E-1,1.123427785E0
7.761535667E0,-1.288448879E0,9.977174234E-1,-2.585627798E-1,1.649968267E0
7.771581667E0,-9.432962910E-1,2.222728398E0,-1.110716035E0,2.657822330E0
7.781628667E0,-1.741040620E-1,3.115857845E0,-8.741540623E-1,3.240837493E0
7.791674667E0,2.702850585E-1,3.759514666E0,1.429234922E-1,3.771926784E0
7.801721083E0,5.960434924E-1,4.679380506E0,1.085114586E0,4.840386703E0
7.811768083E0,5.654078465E-1,5.265528207E0,6.900000983E-1,5.340559285E0
7.821814083E0,-2.710356582E-1,5.266101819E0,-2.748583120E-1,5.280230657E0
7.831860083E0,-1.049368364E0,5.555159510E0,-1.209518777E0,5.781341264E0
7.841907083E0,-1.260963750E0,6.107692153E0,-1.585125784E0,6.434792675E0
7.851953083E0,-1.084217185E0,6.518024020E0,-1.024577120E0,6.686547861E0
7.861999083E0,-1.652157826E-1,7.230752830E0,-1.083670324E-1,7.233451884E0
7.872046083E0,6.072805252E-1,7.841923106E0,9.430437644E-1,7.921734606E0
7.882092083E0,7.915269117E-1,8.113806939E0,9.315602714E-1,8.205375216E0
7.892138083E0,5.010872683E-1,8.135107176E0,4.109510869E-1,8.160878508E0
7.902185083E0,-8.364376210E-2,7.903509489E0,7.098534420E-2,7.904270836E0
7.912231083E0,-6.458474806E-1,7.754835845E0,-1.468814725E-1,7.783069582E0
7.922277083E0,-8.214365892E-1,7.950584838E0,-2.085818768E-1,7.995627789E0
7.932324083E0,-6.823131294E-1,8.100446051E0,8.079858005E-2,8.129532942E0
7.942370083E0,-4.069591197E-1,8.141727394E0,4.871799217E-1,8.166436491E0
7.952416083E0,-1.432243314E-1,8.180516653E0,6.863964593E-1,8.210511922E0
7.962463083E0,1.152613199E-1,8.101264077E0,8.360359173E-1,8.145104104E0
7.972509083E0,3.212884203E-1,7.952931325E0,9.176107152E-1,8.012137813E0
7.982556083E0,3.039359307E-1,7.715772936E0,5.485448420E-1,7.741216345E0
7.992602083E0,-1.879898105E-2,7.306502339E0,6.777455038E-1,7.337892668E0
8.002648083E0,-2.630451091E-1,7.113720809E0,5.885082221E-1,7.142867659E0
8.012695083E0,-3.488035899E-1,6.777245123E0,6.674495803E-1,6.818959183E0
8.022741083E0,-1.467373203E-1,6.623226539E0,5.542930935E-1,6.647999884E0
8.032787083E0,3.002994925E-1,6.542277101E0,2.276264043E-1,6.553120114E0
8.042834083E0,5.852644792E-1,6.300162612E0,4.798064366E-2,6.327470710E0
8.052880083E0,6.204262720E-1,6.122292650E0,2.493790698E-1,6.158700023E0
8.062926083E0,5.881959442E-1,5.980862537E0,7.167592961E-1,6.052308241E0
8.072973083E0,5.096870973E-1,5.643293422E0,9.160131097E-1,5.739827663E0
8.083019083E0,3.087401493E-1,5.016270175E0,1.188312680E0,5.164336741E0
8.093065083E0,-6.560941413E-2,4.328462783E0,1.278624095E0,4.513842513E0
8.103112083E0,-2.891520865E-1,3.653961314E0,1.347337650E0,3.905171053E0
8.113158083E0,-7.139998488E-3,2.985562000E0,1.459291949E0,3.323125701E0
8.123204083E0,8.585118833E-1,2.388751901E0,1.805102130E0,3.114734659E0
8.133251083E0,1.618546715E0,1.830480800E0,2.279474457E0,3.341609975E0
8.143297083E0,1.793360044E0,1.257157797E0,2.617158177E0,3.412638701E0
8.153343083E0,1.532083498E0,7.105881447E-1,2.587795215E0,3.090129355E0
8.163390083E0,1.090345359E0,2.149910098E-1,2.606595767E0,2.833622351E0
8.173436083E0,3.791004261E-1,-2.650835216E-1,2.274528297E0,2.321091420E0
8.183482083E0,-7.611196361E-1,-1.111283800E0,1.661066498E0,2.138550138E0
8.193529083E0,-1.462359983E0,-2.258783500E0,1.148299599E0,2.925609610E0
8.203575083E0,-1.370723589E0,-2.929368503E0,8.566498375E-1,3.345733392E0
8.213622083E0,-6.527119656E-1,-3.310192396E0,8.525661421E-1,3.479982131E0
8.223668083E0,3.667737646E-1,-3.860745757E0,2.073025060E0,4.397421255E0
8.233714083E0,1.546974456E0,-4.117033896E0,3.479458179E0,5.608005643E0
8.243761083E0,2.465079115E0,-4.036860384E0,4.461356546E0,6.502042681E0
8.253807083E0,2.875242582E0,-3.869110783E0,5.162937055E0,7.063494687E0
8.263853083E0,2.441373918E0,-4.206749480E0,4.872296523E0,6.884498617E0
8.273900083E0,1.452806364E0,-4.698914884E0,4.163458450E0,6.443976543E0
8.283946083E0,3.559155948E-1,-5.073813209E0,3.011340619E0,5.910873769E0
8.293992083E0,-6.991656089E-1,-5.697284857E0,1.664268579E0,5.976426791E0
8.304039083E0,-1.491798668E0,-6.384293520E0,5.631688745E-1,6.580412312E0
8.314085083E0,-1.583625243E0,-6.776831140E0,-3.250255220E-1,6.966990082E0
8.324131083E0,-1.013821532E0,-6.939272638E0,-1.326646693E0,7.137319545E0
8.334178083E0,-5.734640671E-1,-7.315941499E0,-1.246019436E0,7.443414908E0
8.344224083E0,-2.925241209E-1,-7.411521256E0,-5.671369413E-1,7.438942263E0
8.354270083E0,-2.663251413E-2,-7.179335339E0,-1.783925562E-1,7.181600734E0
8.364317083E0,2.097582635E-1,-7.027732825E0,3.001649152E-1,7.037266952E0
8.374363083E0,4.482775189E-1,-6.904856511E0,8.973278935E-1,6.977334271E0
8.384410083E0,4.923936646E-1,-6.914448869E0,1.205778021E0,7.036046853E0
8.394456083E0,4.344016376E-1,-7.008824099E0,1.325694766E0,7.146312800E0
8.404502083E0,3.748599523E-1,-7.116516947E0,1.278624826E0,7.240180584E0
8.414549083E0,3.626617833E-1,-7.319762655E0,1.251062513E0,7.434756641E0
8.424595083E0,4.924702632E-1,-7.464491767E0,8.800846007E-1,7.532311279E0
8.434641083E0,4.159254594E-1,-7.887149565E0,5.891549242E-1,7.920052132E0
8.444688083E0,1.764151923E-1,-8.250320714E0,2.325095603E-1,8.255481506E0
8.454734083E0,6.593506750E-2,-8.435341235E0,-5.197122216E-2,8.435759017E0
8.464780083E0,6.326228695E-2,-8.188732576E0,8.056059837E-2,8.189373195E0
8.474827083E0,2.135641065E-1,-7.654233915E0,-1.338329722E-1,7.658382187E0
8.484873083E0,3.186064486E-1,-7.352932740E0,-6.108913636E-1,7.385141719E0
8.494919083E0,3.680360323E-1,-7.237442629E0,-4.196894583E-1,7.258936945E0
8.504966083E0,3.984362912E-1,-7.160310838E0,-1.477334118E-1,7.172909308E0
8.515012083E0,3.862654215E-1,-6.882107919E0,5.312823996E-1,6.913383497E0
8.525058083E0,3.414855071E-1,-6.034249370E0,1.098198024E0,6.142867141E0
8.535105083E0,6.140146539E-1,-5.018959894E0,1.433558353E0,5.255669507E0
8.545151083E0,9.661199471E-1,-4.148029987E0,1.483082223E0,4.509886185E0
8.555198083E0,8.711291514E-1,-3.940448568E0,1.537311348E0,4.318486668E0
8.565244083E0,5.470296366E-2,-4.143375018E0,1.853964972E0,4.539574328E0
8.575290083E0,-1.131832158E0,-3.884517612E0,1.428182277E0,4.290713895E0
8.585337083E0,-1.790851589E0,-3.751907439E0,7.452264655E-1,4.223662075E0
8.595383083E0,-1.405841235E0,-3.128129981E0,-3.086088793E-1,3.443374246E0
8.605429083E0,-2.566825711E-1,-1.761277834E0,-1.234063050E0,2.165847908E0
8.615476083E0,1.206780014E0,-4.106417692E-1,-4.173590505E-1,1.341317726E0
8.625522083E0,1.679042446E0,7.108828443E-1,7.340618650E-1,1.965549485E0
8.635568083E0,9.626517443E-1,1.513119662E0,1.422835729E0,2.289255557E0
8.645615083E0,1.546993825E-1,2.489817515E0,1.329659178E0,2.826856326E0
8.655661083E0,-3.503406036E-1,3.031740385E0,-1.305754153E-1,3.054707554E0
8.665707083E0,-1.303390270E0,2.800909853E0,-8.301525950E-1,3.198917869E0
8.675754083E0,-2.370464588E0,2.758223425E0,-1.230711426E0,3.839472546E0
8.685800083E0,-2.331143524E0,3.478135539E0,-8.419733262E-1,4.270898739E0
8.695846083E0,-8.177767438E-1,4.961457206E0,-1.071463092E0,5.141288707E0
8.705893083E0,7.140957431E-1,5.757988896E0,4.309649001E-1,5.818083843E0
8.715939083E0,2.167648504E0,7.389126420E0,1.720225702E0,7.890314680E0
8.725985083E0,2.496832712E0,8.550052496E0,2.024044104E0,9.134239203E0
8.736032083E0,1.543379442E0,8.692305897E0,1.700749796E0,8.990592405E0
8.746078083E0,5.169154618E-1,8.579400256E0,1.082400747E0,8.662846053E0
8.756125083E0,4.034249894E-2,8.546696194E0,4.351926197E-1,8.557863984E0
8.766171083E0,-4.020803126E-1,8.368553168E0,5.987654078E-1,8.399575627E0
8.776217083E0,-1.002238637E0,8.206522145E0,1.398127588E0,8.384882155E0
8.786264083E0,-9.903978058E-1,8.858321214E0,1.122147927E0,8.983872133E0
8.796310083E0,-3.298095676E-1,9.740452632E0,-1.289543478E-1,9.746887763E0
8.806356542E0,-1.648907140E-1,9.584608548E0,-3.769887042E-1,9.593436842E0
8.816403542E0,-4.105751475E-1,9.156427470E0,-8.067514533E-1,9.201064280E0
8.826449542E0,-6.210532397E-1,8.842564137E0,-9.320146000E-1,8.913209234E0
8.836495542E0,-6.301456600E-1,8.723280353E0,-9.430716848E-1,8.796708923E0
8.846542542E0,-6.213936207E-1,8.294435617E0,-8.839674443E-1,8.364519752E0
8.856588542E0,-6.662563828E-1,7.621656738E0,-1.931902510E-1,7.653160881E0
8.866634542E0,-4.053474443E-1,7.213794735E0,5.746606998E-1,7.247991167E0
8.876681542E0,1.030567739E-1,6.909331970E0,1.326735570E0,7.036314109E0
8.886727542E0,5.332320440E-1,6.888984244E0,9.941149539E-1,6.980738133E0
8.896773542E0,6.183907831E-1,6.441536592E0,4.160551214E-1,6.484512525E0
8.906820542E0,5.750909453E-1,6.014181141E0,3.800082064E-1,6.053553554E0
8.916866542E0,7.435613977E-1,5.977662941E0,3.507556097E-1,6.033934643E0
8.926912542E0,7.506140169E-1,5.788007916E0,5.966678654E-1,5.866896077E0
8.936959542E0,8.848851648E-1,5.653145396E0,6.722642507E-1,5.761337852E0
8.947005542E0,8.519328155E-1,5.505925954E0,6.802674079E-1,5.612822274E0
8.957052542E0,8.532153292E-1,5.644193308E0,5.372555497E-1,5.733544979E0
8.967098542E0,5.143216370E-1,5.118302919E0,-3.196569009E-1,5.154001557E0
8.977144542E0,-7.275938943E-2,4.354754788E0,-1.125888975E0,4.498534114E0
8.987191542E0,-2.145134750E-1,3.811740827E0,-1.287438188E0,4.029004995E0
8.997237542E0,1.581176282E-1,3.275404971E0,-3.985386175E-1,3.303348595E0
9.007283542E0,1.089944825E0,3.375799325E0,1.355516735E0,3.797555322E0
9.017330542E0,2.122844507E0,3.450338461E0,2.713205711E0,4.875734768E0
9.027376542E0,2.382892406E0,2.648873475E0,3.447332407E0,4.957701850E0
9.037422542E0,2.252977068E0,1.878198173E0,3.286392474E0,4.404986895E0
9.047469542E0,2.077066070E0,1.252723854E0,3.257676798E0,4.061524176E0
9.057515542E0,1.563626011E0,5.956558585E-1,2.829300424E0,3.287046256E0
9.067561542E0,8.492142988E-1,-4.793412906E-1,2.792409171E0,2.957783287E0
9.077608542E0,2.400711248E-1,-1.457021475E0,2.776153911E0,3.144451664E0
9.087654542E0,-3.392260699E-1,-2.165848439E0,2.884661862E0,3.623154405E0
9.097700542E0,-2.787324396E-1,-2.693339211E0,3.326806090E0,4.289452953E0
9.107747542E0,3.852940893E-1,-3.180945541E0,3.511622543E0,4.753773129E0
9.117793542E0,9.606530929E-1,-3.992426807E0,3.355119478E0,5.302749559E0
9.127840542E0,1.491807877E0,-4.717533004E0,3.648067321E0,6.147276109E0
9.137886542E0,1.546906482E0,-5.226654748E0,3.370964262E0,6.408918753E0
9.147932542E0,1.350251171E0,-5.833656544E0,3.086814140E0,6.736701599E0
9.157979542E0,1.201275811E0,-6.495254962E0,2.309176704E0,6.997406494E0
9.168025542E0,7.703867421E-1,-6.966784372E0,1.690068833E0,7.210125719E0
9.178071542E0,2.157476030E-1,-7.397583833E0,1.379903425E0,7.528275171E0
9.188118542E0,-2.096909474E-1,-7.771172381E0,4.323479493E-1,7.786014078E0
9.198164542E0,-4.698353625E-1,-8.046018414E0,-7.095631278E-1,8.090898431E0
9.208210542E0,-8.301811002E-1,-8.196296534E0,-1.307262296E0,8.341307586E0
9.218257542E0,-1.368018229E0,-8.284273156E0,-1.288752350E0,8.494794772E0
9.228303542E0,-1.481246344E0,-8.010827531E0,-1.542498997E0,8.291366089E0
9.238349542E0,-9.495386323E-1,-7.341349406E0,-1.278868947E0,7.512159509E0
9.248396542E0,-2.948490652E-1,-6.562453503E0,-3.064552036E-1,6.576218271E0
9.258442542E0,-9.904108889E-2,-5.714489704E0,7.474156630E-1,5.764011788E0
9.268488542E0,-3.028433054E-1,-5.209268637E0,1.107859086E0,5.334373961E0
9.278535542E0,-3.288528170E-1,-5.128269498E0,8.130510972E-1,5.202724700E0
9.288581542E0,-2.206762211E-1,-5.274135894E0,2.939839697E-1,5.286930489E0
9.298628542E0,-2.484017077E-1,-5.399425353E0,-2.658591548E-1,5.411670596E0
9.308674542E0,-3.845215990E-1,-5.506621188E0,-8.691818824E-1,5.588041778E0
9.318720542E0,-6.661319102E-1,-5.543063375E0,-1.607583185E0,5.809785452E0
9.328767542E0,-7.796482931E-1,-5.304367753E0,-2.095798357E0,5.756434614E0
9.338813542E0,-6.136446713E-1,-4.836086470E0,-1.473491035E0,5.092687696E0
9.348859542E0,-2.083954419E-1,-4.067445415E0,-6.515584561E-1,4.124568982E0
9.358906542E0,1.106912641E-1,-3.352140906E0,-2.035243276E-1,3.360137402E0
9.368952542E0,2.629973812E-1,-3.016389105E0,3.414376330E-1,3.047023222E0
9.378998542E0,5.772356674E-1,-2.698425704E0,5.741324039E-1,2.818568841E0
9.389045542E0,1.000214769E0,-2.563654400E0,4.098304680E-1,2.782213953E0
9.399091542E0,1.322030608E0,-2.737175787E0,4.213315026E-1,3.068780939E0
9.409137542E0,1.600781558E0,-2.789893114E0,6.676428308E-1,3.285080232E0
9.419184542E0,1.687814878E0,-2.795065561E0,1.061814601E0,3.433447364E0
9.429230542E0,1.434828222E0,-2.865934399E0,1.230839918E0,3.433260682E0
9.439276542E0,9.120029430E-1,-2.580339430E0,8.396471576E-1,2.862675024E0
9.449323542E0,3.701773558E-2,-2.249710960E0,5.701618521E-1,2.321132106E0
9.459369542E0,-7.579472293E-1,-1.659221116E0,5.099239826E-2,1.824855868E0
9.469416542E0,-1.189736769E0,-9.968333244E-1,-3.256374331E-1,1.585935054E0
9.479462542E0,-1.330544154E0,-6.801779455E-1,-1.090918679E0,1.850160357E0
9.489508542E0,-1.021602642E0,-1.777477545E-1,-1.679824365E0,1.974101345E0
9.499555542E0,-2.796976321E-1,2.560144901E-1,-1.276105700E0,1.331247513E0
9.509601542E0,5.784786758E-1,5.144479734E-1,4.267473400E-1,8.839726171E-1
9.519647542E0,1.033957589E0,8.175003898E-1,2.122770832E0,2.498705902E0
9.529694542E0,1.083670470E0,1.626221185E0,2.637338673E0,3.282452179E0
9.539740542E0,1.010636627E0,2.651827489E0,1.931803107E0,3.432992669E0
9.549786542E0,6.224232423E-1,3.226057395E0,5.420146716E-1,3.329960497E0
9.559833542E0,1.984703964E-2,3.365397713E0,-1.002464193E0,3.511585131E0
9.569879542E0,-6.210691734E-1,3.133500064E0,-1.943021575E0,3.738968094E0
9.579925542E0,-7.533866934E-1,2.860910472E0,-2.157096326E0,3.661347402E0
9.589972542E0,-5.250224436E-1,2.562466831E0,-1.627569553E0,3.080725154E0
9.600018542E0,-1.752025528E-1,2.388116893E0,-5.194865191E-1,2.450237636E0
9.610064542E0,-1.114044417E-2,2.441098514E0,8.421616066E-1,2.582309477E0
9.620111542E0,1.609486308E-2,2.926365958E0,2.044564907E0,3.569891094E0
9.630157542E0,-4.025307309E-2,3.227188831E0,2.577523411E0,4.130374680E0
9.640204542E0,-4.351110511E-2,3.187648205E0,2.931464145E0,4.330874776E0
9.650250542E0,3.509892060E-1,3.400959309E0,2.118097737E0,4.021946751E0
9.660296542E0,5.187943549E-1,3.125675905E0,1.145698757E0,3.369216984E0
9.670343542E0,5.177919960E-1,2.626564593E0,6.981815225E-1,2.766659999E0
9.680389542E0,5.126420974E-1,2.274766864E0,4.007267187E-1,2.365998332E0
9.690435542E0,4.311489777E-1,2.262167283E0,4.206611194E-2,2.303271546E0
9.700482542E0,1.907907730E-1,2.332199385E0,-3.662586249E-2,2.340277023E0
9.710528542E0,-1.642188506E-1,2.185378724E0,3.135334774E-1,2.213854385E0
9.720574542E0,-2.824354995E-1,2.093542939E0,9.572062323E-1,2.319253247E0
9.730621542E0,-2.799014441E-1,2.123373095E0,9.763394183E-1,2.353783503E0
9.740667542E0,-3.716621100E-1,1.942856684E0,7.020869509E-1,2.098988067E0
9.750713542E0,-2.260185662E-1,1.727861581E0,2.363503770E-1,1.758536760E0
9.760760542E0,-2.779603695E-2,1.493713923E0,9.908742808E-2,1.497254896E0
9.770806542E0,1.904786047E-1,1.408155710E0,3.053744189E-1,1.453422904E0
9.780852542E0,1.711066696E-1,1.559383417E0,2.493094148E-1,1.588429828E0
9.790899542E0,-1.905496119E-1,1.434438359E0,2.996105991E-2,1.447349379E0
9.800945208E0,-6.185953626E-1,1.123453610E0,-2.655022553E-1,1.309694500E0
9.810992208E0,-1.004865791E0,8.082769918E-1,-4.311673234E-1,1.359769177E0
9.821038208E0,-1.243834478E0,4.347884309E-1,-5.829089284E-1,1.440815049E0
9.831084208E0,-1.284678449E0,1.039325041E-1,-9.271017694E-1,1.587677037E0
9.841131208E0,-1.111286651E0,-1.432445043E-1,-8.301572728E-1,1.394502817E0
9.851177208E0,-6.389734939E-1,-1.158953226E-1,-2.977841482E-1,7.144188202E-1
9.861223208E0,-4.695534353E-2,1.963436544E-2,1.171552514E-1,1.277327895E-1
9.871270208E0,4.807899383E-1,6.066427767E-2,3.862927207E-1,6.197267022E-1
9.881316208E0,7.466526745E-1,5.802133620E-2,5.901559675E-1,9.534887297E-1
9.891362208E0,5.947089385E-1,1.944842398E-2,2.252803552E-1,6.362453938E-1
9.901409208E0,3.082698139E-1,1.938235044E-2,-1.533496624E-1,3.448507976E-1
9.911455208E0,-5.546232968E-2,-1.852222502E-2,-4.377769428E-1,4.416647988E-1
9.921501208E0,-3.181770803E-1,-2.020025897E-1,-7.168751440E-1,8.099084348E-1
9.931548208E0,-6.347483689E-1,-3.877692157E-1,-9.554029510E-1,1.210811817E0
9.941594208E0,-8.899634716E-1,-4.369969243E-1,-9.986757821E-1,1.407250728E0
9.951640208E0,-6.146607712E-1,-2.927122003E-1,-5.346595321E-1,8.656495313E-1
9.961687208E0,9.820738558E-2,-1.642190516E-2,1.651855233E-1,1.928746397E-1
9.971733208E0,7.363675683E-1,2.269298548E-1,5.518157744E-1,9.477526067E-1
9.981779208E0,8.781813321E-1,1.592576891E-1,8.832295988E-1,1.255651221E0
9.991826208E0,9.642566588E-1,1.506991196E-1,8.810853517E-1,1.314843156E0
1.000187221E1,8.177528434E-1,1.941059250E-1,5.581879970E-1,1.008945322E0
1.001191921E1,5.331142957E-1,2.273648876E-1,2.656518710E-1,6.375551435E-1
1.002196521E1,7.375521594E-2,2.715903032E-1,2.054828525E-2,2.821761093E-1
1.003201121E1,-4.403745319E-1,3.870599484E-1,-5.406576059E-1,7.975310519E-1
1.004205821E1,-3.971624753E-1,1.639395547E-1,-9.448147398E-1,1.037925384E0
1.005210421E1,-2.562233454E-1,-1.813736129E-1,-7.275795686E-1,7.924132879E-1
1.006215021E1,-1.602135992E-1,-1.293181908E-1,-3.698820714E-1,4.233253342E-1
1.007219721E1,-1.392223052E-1,6.765696287E-2,-2.446252835E-1,2.894854819E-1
1.008224321E1,-2.508270962E-1,1.012223196E-1,-1.106293201E-2,2.707075519E-1
1.009228921E1,-2.092710990E-1,1.733874857E-1,4.968788445E-2,2.762725085E-1
1.010233621E1,-1.149314456E-1,1.072917295E-1,-5.814982876E-3,1.573358396E-1
1.011238221E1,-1.506694998E-2,5.932585001E-2,1.355326116E-2,6.269178853E-2
1.012242821E1,-1.512969334E-1,-1.901631474E-2,-1.899082088E-1,2.435518632E-1
1.013247521E1,-1.894110493E-1,-7.998581707E-2,-4.971156567E-1,5.379574823E-1
1.014252121E1,-2.421082764E-1,-9.797185242E-2,-6.812947637E-1,7.296420056E-1
1.015256821E1,-3.494076072E-1,-9.672990382E-2,-8.273318982E-1,9.032831340E-1
1.016261421E1,-2.834075260E-1,-1.269962615E-1,-7.463993438E-1,8.084304897E-1
1.017266021E1,-2.784195587E-2,6.545782506E-2,-7.320391669E-1,7.354870789E-1
1.018270721E1,3.733689854E-1,2.105149662E-1,-8.665983633E-1,9.668059130E-1
1.019275321E1,5.515758924E-1,1.482801265E-1,-6.540548518E-1,8.683379009E-1
1.020279921E1,7.096369489E-1,1.225348359E-1,-2.516671584E-1,7.628471300E-1
1.021284621E1,6.780357450E-1,2.872473925E-1,-1.398910531E-1,7.495418885E-1
1.022289221E1,3.233347265E-1,2.098255795E-1,-3.577045139E-1,5.258561005E-1
1.023293821E1,-4.803393555E-2,1.111672640E-2,-9.345405972E-1,9.358402473E-1
1.024298521E1,-4.008856899E-1,-8.939924955E-2,-1.067666495E0,1.143946374E0
1.025303121E1,-7.086370750E-1,-3.169541717E-2,-1.070229914E0,1.283963852E0
1.026307721E1,-6.938488088E-1,2.074744141E-1,-1.139306069E0,1.349996341E0
1.027312421E1,-5.514047883E-1,2.682240611E-1,-1.075101156E0,1.237672769E0
1.028317021E1,-3.341572648E-1,3.527215898E-1,-1.145157963E0,1.243969597E0
1.029321621E1,-2.020893843E-1,3.861360884E-1,-1.275070742E0,1.347496418E0
1.030326321E1,-2.596625132E-1,5.204448777E-1,-1.393997846E0,1.510469294E0
1.031330921E1,-3.226013029E-1,6.084741247E-1,-1.543847365E0,1.690496095E0
1.032335621E1,-2.930010162E-1,5.400388974E-1,-1.526729057E0,1.645719666E0
1.033340221E1,-3.811280213E-1,6.442473900E-1,-1.513126094E0,1.688153976E0
1.034344821E1,-4.721596307E-1,7.907990795E-1,-1.772613246E0,1.997612480E0
1.035349521E1,-3.742581276E-1,1.020876490E0,-1.909245134E0,2.197151551E0
1.036354121E1,-3.509642822E-1,1.193430748E0,-2.224197219E0,2.548432096E0
1.037358721E1,-3.974960589E-1,1.189182746E0,-2.654495573E0,2.935729120E0
1.038363421E1,-5.141337586E-1,1.025821481E0,-3.194416357E0,3.394250888E0
1.039368021E1,-4.085923201E-1,9.323005289E-1,-3.566296349E0,3.708719672E0
1.040372621E1,-1.731104008E-1,9.459450066E-1,-3.155465130E0,3.298748149E0
1.041377321E1,1.020753553E-1,1.134384980E0,-2.128790540E0,2.414331755E0
1.042381921E1,5.591197142E-2,1.135961389E0,-2.027247793E0,2.324493072E0
1.043386521E1,-4.329817509E-1,8.271588206E-1,-1.917792594E0,2.132977577E0
1.044391221E1,-4.722804853E-1,7.939594996E-1,-2.376208454E0,2.549468015E0
1.045395821E1,-3.917224086E-1,4.657880294E-1,-2.181171652E0,2.264489945E0
1.046400421E1,-7.122350860E-2,4.380131704E-1,-1.816135826E0,1.869566170E0
1.047405121E1,1.186958830E-1,5.115781599E-1,-1.448362918E0,1.540634957E0
1.048409721E1,4.241221960E-1,7.796168643E-1,-1.403178560E0,1.660298817E0
1.049414421E1,6.014234789E-1,5.331766051E-1,-1.363705176E0,1.582933764E0
1.050419021E1,6.292984716E-1,1.086436057E-1,-2.128564253E0,2.222297410E0
1.051423621E1,5.996576929E-1,-2.774369341E-1,-2.601017523E0,2.683626792E0
1.052428321E1,4.175523741E-1,-6.648699349E-1,-2.447953205E0,2.570773601E0
1.053432921E1,3.879181735E-1,-4.798739719E-1,-1.068031361E0,1.233470927E0
1.054437521E1,1.820836110E-1,-3.849543661E-1,-3.207455063E-1,5.331247370E-1
1.055442221E1,-6.860170481E-1,-7.362100589E-1,-5.271042717E-1,1.135985719E0
1.056446821E1,-1.212996993E0,-8.531882858E-1,-1.794557261E-1,1.493819371E0
1.057451421E1,-1.570280727E0,-9.232268196E-1,-2.665675815E-1,1.840974633E0
1.058456121E1,-1.383482214E0,-9.647788882E-1,-2.636661565E-1,1.707144159E0
1.059460721E1,-2.717264154E-1,-7.795192158E-1,1.678092420E-1,8.424045313E-1
1.060465321E1,6.026876835E-1,-6.411401796E-1,1.022483890E0,1.348987205E0
1.061470021E1,1.021794650E0,-4.074719936E-1,1.688342589E0,2.015092660E0
1.062474621E1,1.034818445E0,-7.022798359E-2,2.895467516E0,3.075632182E0
1.063479321E1,7.150911585E-1,3.141486776E-1,4.003441207E0,4.078919742E0
1.064483921E1,1.642996335E-1,4.118650067E-1,5.115198047E0,5.134381970E0
1.065488521E1,-4.185071513E-1,6.419985509E-1,5.855455549E0,5.905393303E0
1.066493221E1,-8.261616511E-1,6.132904762E-1,5.747873797E0,5.839239803E0
1.067497821E1,-7.097258265E-1,2.831777304E-1,5.425038496E0,5.478589514E0
1.068502421E1,-3.589686819E-1,9.996984601E-3,5.215233382E0,5.227582394E0
1.069507121E1,-4.684920743E-2,-3.149374670E-1,4.796145895E0,4.806703225E0
1.070511721E1,2.449413986E-1,-7.020336682E-1,4.441651429E0,4.503455893E0
1.071516321E1,4.866353998E-1,-8.142692184E-1,4.232833325E0,4.337825069E0
1.072521021E1,6.267475507E-1,-7.461099797E-1,4.453430060E0,4.558786230E0
1.073525621E1,3.891759096E-1,-7.560192561E-1,4.488611587E0,4.568441418E0
1.074530221E1,1.614629300E-1,-8.855853689E-1,4.248948251E0,4.343258335E0
1.075534921E1,1.570664085E-1,-9.920871395E-1,4.522424866E0,4.632627054E0
1.076539521E1,4.231960335E-1,-9.843483496E-1,4.939519622E0,5.054393203E0
1.077544121E1,6.710115579E-1,-8.969283825E-1,5.642494107E0,5.752606087E0
1.078548821E1,1.047460930E0,-5.987098593E-1,6.167070043E0,6.283978104E0
1.079553421E1,1.288605439E0,-5.207688135E-1,6.103390356E0,6.259638805E0
1.080558167E1,1.287334692E0,-7.688252431E-1,5.377228153E0,5.582374537E0
1.081562767E1,1.196472762E0,-1.034087105E0,4.777543563E0,5.032475107E0
1.082567367E1,1.053842727E0,-1.204770253E0,4.504544080E0,4.780478347E0
1.083572067E1,6.690865083E-1,-1.283330519E0,4.450884182E0,4.680276058E0
1.084576667E1,2.441375891E-1,-1.349339737E0,4.282006069E0,4.496209166E0
1.085581267E1,-6.700618604E-2,-1.389750429E0,3.728303983E0,3.979465627E0
1.086585967E1,-2.102282882E-1,-1.343220041E0,3.226734502E0,3.501464202E0
1.087590567E1,-1.491957822E-1,-1.198899064E0,3.236280667E0,3.454436408E0
1.088595167E1,7.759448860E-2,-1.032776159E0,3.422505130E0,3.575778078E0
1.089599867E1,1.724959315E-1,-1.082778624E0,3.384077228E0,3.557266237E0
1.090604467E1,1.703610035E-1,-1.192116294E0,3.658724456E0,3.851808507E0
1.091609067E1,3.927469504E-1,-8.507874191E-1,4.293256112E0,4.394330148E0
1.092613767E1,7.641401616E-1,-6.109773177E-1,4.336074103E0,4.445080663E0
1.093618367E1,1.049711815E0,-1.561955023E-1,4.107381313E0,4.242272172E0
1.094622967E1,2.228388138E-1,-4.193038344E-3,3.976579099E0,3.982820112E0
1.095627667E1,-4.082076098E-1,-2.780994236E-1,3.123182652E0,3.161999782E0
1.096632267E1,-1.234767858E-1,-2.393557727E-1,1.894242933E0,1.913294016E0
1.097636967E1,1.706520852E-2,-8.731296301E-2,2.976045656E-1,3.106175338E-1
1.098641567E1,-8.756333347E-2,-1.431451017E-1,-7.689030111E-1,7.870004434E-1
1.099646167E1,-1.443878725E-1,-5.116296154E-1,5.600989401E-1,7.722198805E-1
1.100650867E1,2.714832991E-1,-2.394352949E-1,6.623269808E-1,7.547910119E-1
1.101655467E1,6.095555672E-1,7.147928774E-2,-7.226047575E-1,9.480637709E-1
1.102660067E1,1.960009162E-1,-8.559037328E-2,-1.518671594E0,1.533657550E0
1.103664767E1,-4.479722942E-1,-2.625142550E-1,-2.737440666E0,2.786247353E0
1.104669367E1,-8.929233322E-1,1.388514912E-1,-3.655991467E0,3.766014528E0
1.105673967E1,-1.459338435E0,2.307457477E-1,-4.432782372E0,4.672523069E0
1.106678667E1,-1.440930230E0,4.427956080E-1,-5.008136698E0,5.230084231E0
1.107683267E1,-8.943660595E-1,7.539470029E-1,-5.302593123E0,5.430084765E0
1.108687867E1,-2.168798432E-1,1.027763926E0,-5.467897418E0,5.567875512E0
1.109692567E1,1.260875128E-1,1.273439369E0,-5.281205177E0,5.434029261E0
1.110697167E1,9.751165828E-2,1.524068574E0,-6.007663250E0,6.198734650E0
1.111701867E1,-2.828082960E-1,1.355609706E0,-6.847226354E0,6.985854776E0
1.112706467E1,-5.423042184E-1,1.047552658E0,-7.251235042E0,7.346554979E0
1.113711067E1,-8.976448126E-1,8.769735897E-1,-7.416717677E0,7.522137328E0
1.114715767E1,-1.332566560E0,8.734629214E-1,-6.930257401E0,7.111057499E0
1.115720367E1,-1.477874839E0,1.118567677E0,-5.893554837E0,6.178130486E0
1.116724967E1,-1.353111922E0,1.387446041E0,-5.446524675E0,5.781050893E0
1.117729667E1,-7.971014278E-1,1.588493196E0,-5.179411585E0,5.475854790E0
1.118734267E1,-1.543236441E-1,1.709358652E0,-4.819857523E0,5.116321856E0
1.119738867E1,1.685061936E-1,1.711513351E0,-4.814354124E0,5.112306516E0
1.120743567E1,1.650139440E-1,1.443700933E0,-5.006074385E0,5.212703975E0
1.121748167E1,4.766208004E-2,1.162345780E0,-5.620186980E0,5.739322353E0
1.122752767E1,1.337821014E-1,8.210490650E-1,-5.776891775E0,5.836479915E0
1.123757467E1,4.835856383E-1,6.952947521E-1,-5.533023121E0,5.597466812E0
1.124762067E1,4.753976360E-1,6.417477053E-1,-5.407607946E0,5.466266251E0
1.125766667E1,1.335809937E-1,6.874378484E-1,-5.142848945E0,5.190309235E0
1.126771367E1,-1.146982513E-1,9.140595549E-1,-4.778148165E0,4.866144310E0
1.127775967E1,-2.014201339E-1,1.121574900E0,-4.549807377E0,4.690335542E0
1.128780667E1,-2.165455835E-1,1.078838185E0,-4.534005277E0,4.665617608E0
1.129785267E1,-9.343125192E-2,1.084113543E0,-4.561664361E0,4.689649594E0
1.130789867E1,3.869606189E-1,1.329871432E0,-4.212289132E0,4.434148879E0
1.131794567E1,9.214598642E-1,1.507348461E0,-3.942976905E0,4.320677555E0
1.132799167E1,1.227826409E0,1.654946217E0,-3.731632218E0,4.262802328E0
1.133803767E1,1.556869115E0,1.916327282E0,-3.356758452E0,4.167010799E0
1.134808467E1,1.487934097E0,1.655331548E0,-3.543157162E0,4.184260160E0
1.135813067E1,1.061124630E0,1.124137734E0,-3.591609530E0,3.910157304E0
1.136817667E1,7.081155033E-1,9.111072958E-1,-3.343895162E0,3.537397197E0
1.137822367E1,3.637446511E-1,6.012042814E-1,-3.179414155E0,3.256137456E0
1.138826967E1,3.357752990E-1,4.469249117E-1,-2.497123611E0,2.558928146E0
1.139831567E1,3.710607239E-1,5.089860892E-1,-2.013039644E0,2.109284596E0
1.140836267E1,4.205063143E-1,2.481722045E-1,-1.736272216E0,1.803623079E0
1.141840867E1,6.627436680E-1,-2.443621588E-1,-1.860039060E0,1.989645028E0
1.142845567E1,3.458927363E-1,-8.482181525E-1,-2.555813284E0,2.715013326E0
1.143850167E1,1.851339938E-1,-8.170507389E-1,-2.633313450E0,2.763365019E0
1.144854767E1,-6.879502838E-1,-4.561219972E-1,-3.027449698E0,3.137957066E0
1.145859467E1,-2.183307932E0,1.333732349E-1,-2.724362783E0,3.493819475E0
1.146864067E1,-3.364187924E0,1.279429257E0,-5.758933660E-1,3.645044963E0
1.147868667E1,-3.171679166E0,1.970088921E0,1.380324132E0,3.980715237E0
1.148873367E1,-1.876078265E0,1.677621135E0,3.470108482E0,4.286692805E0
1.149877967E1,-5.473561762E-1,1.199403679E0,4.343624028E0,4.539299248E0
1.150882567E1,5.199159605E-2,2.941757584E-1,4.155890983E0,4.166614017E0
1.151887267E1,6.982649915E-1,-7.551585460E-1,4.047713985E0,4.176341334E0
1.152891867E1,1.083035682E0,-1.637537302E0,4.092272108E0,4.538852906E0
1.153896467E1,8.058391415E-1,-1.453097994E0,4.719664314E0,5.003608871E0
1.154901167E1,4.256945122E-1,-6.471066785E-1,5.527967033E0,5.581969401E0
1.155905767E1,3.291576396E-1,-4.386908627E-1,6.592527487E0,6.615301436E0
1.156910467E1,6.490009205E-2,-2.231449521E-1,7.228413359E0,7.232148047E0
1.157915067E1,-2.164730415E-1,-3.978153169E-1,7.449243983E0,7.462998963E0
1.158919667E1,3.472285692E-1,-7.875994831E-1,7.972606037E0,8.018935568E0
1.159924367E1,8.895913694E-1,-8.230271780E-1,8.246665034E0,8.335240292E0
1.160928967E1,1.121535431E-1,-1.332316738E0,7.021326030E0,7.147493654E0
1.161933567E1,-7.767384262E-1,-1.872065029E0,5.613974898E0,5.968640064E0
1.162938267E1,-7.607764777E-1,-1.770557950E0,4.635260925E0,5.019890452E0
1.163942867E1,-7.582139354E-1,-1.751990116E0,4.373816711E0,4.772277272E0
1.164947467E1,-6.561681817E-1,-1.669268387E0,4.209288926E0,4.575491984E0
1.165952167E1,-5.711778058E-1,-1.237624004E0,4.221578604E0,4.436178893E0
1.166956767E1,-5.369966642E-1,-7.573366338E-1,4.666798468E0,4.758248851E0
1.167961367E1,3.638455156E-1,-2.504783463E-1,6.440698686E0,6.455828570E0
1.168966067E1,8.805267233E-1,-4.639040565E-1,7.421745697E0,7.488180252E0
1.169970667E1,9.981417851E-1,-7.094420904E-1,7.461960508E0,7.561775567E0
1.170975367E1,1.527768984E0,-2.462163109E-1,8.469397173E0,8.609610271E0
1.171979967E1,1.899558490E0,2.619295335E-1,7.473795857E0,7.715863791E0
1.172984567E1,1.451307722E0,6.401122391E-2,5.491809606E0,5.680701039E0
1.173989267E1,8.530877868E-1,-5.866745353E-1,4.504528878E0,4.621982929E0
1.174993867E1,5.554199251E-1,-7.288185936E-1,3.812590427E0,3.921162277E0
1.175998467E1,1.828718523E-1,-6.617633092E-1,3.406482589E0,3.474981500E0
1.177003167E1,-2.318218546E-1,-5.393875176E-1,3.166568992E0,3.220534032E0
1.178007767E1,-7.436417238E-1,-2.812347007E-1,2.947906516E0,3.053235791E0
1.179012367E1,-5.627015358E-1,7.847665071E-2,3.680728698E0,3.724319448E0
1.180017067E1,7.607318196E-1,6.638308847E-1,4.999778688E0,5.100703018E0
1.181021679E1,2.190142450E0,9.616284084E-1,5.292544098E0,5.807966613E0
1.182026279E1,2.792371749E0,7.982548642E-1,4.664155526E0,5.494442427E0
1.183030979E1,2.481230294E0,2.441475660E-1,3.445637884E0,4.253061513E0
1.184035579E1,1.193577440E0,-6.132957387E-1,2.301133128E0,2.663826654E0
1.185040279E1,1.504539751E-1,-9.382103097E-1,1.852800207E0,2.082244844E0
1.186044879E1,-2.217980459E-2,-8.601973432E-1,8.422001982E-1,1.204048415E0
1.187049479E1,-3.347863521E-2,-6.867361826E-1,-7.263048756E-1,1.000123080E0
1.188054179E1,-1.377256829E-1,-6.370658398E-1,-1.168901678E0,1.338339412E0
1.189058779E1,-5.594447829E-2,-3.353512663E-1,-1.272282790E0,1.316925873E0
1.190063379E1,-1.152708765E-1,1.366669714E-2,-1.459466196E0,1.464075043E0
1.191068079E1,-3.148701144E-1,2.248184252E-1,-1.393970364E0,1.446665092E0
1.192072679E1,-2.309386693E-1,4.691004771E-1,-1.262988641E0,1.366941196E0
1.193077279E1,1.192841860E-1,7.227977157E-1,-9.384605706E-1,1.190534963E0
1.194081979E1,3.758015367E-1,6.106849569E-1,-6.562014377E-1,9.719893201E-1
1.195086579E1,4.028399755E-1,1.641734433E-1,-9.530107820E-1,1.047598452E0
1.196091179E1,1.806034980E-1,-3.093644857E-2,-2.457704607E0,2.464525638E0
1.197095879E1,-2.673109819E-1,-5.600638568E-2,-3.854851179E0,3.864514133E0
1.198100479E1,-5.296112288E-1,2.512197733E-2,-4.512008051E0,4.543053579E0
1.199105179E1,-4.571072896E-1,4.043150818E-1,-4.610190403E0,4.650405715E0
1.200109779E1,-3.838308236E-1,7.685229421E-1,-4.537201949E0,4.617808478E0
1.201114379E1,-1.998855322E-1,1.039468882E0,-3.890264840E0,4.031700672E0
1.202119079E1,-4.191139827E-2,1.180090325E0,-3.227545511E0,3.436774617E0
1.203123679E1,-1.810128397E-1,9.450772798E-1,-3.088190575E0,3.234634097E0
1.204128279E1,-7.494904013E-1,5.138696837E-1,-3.184550934E0,3.311670661E0
1.205132979E1,-1.392005554E0,8.188440800E-2,-3.193313572E0,3.484485053E0
1.206137579E1,-1.739499002E0,-1.039120388E-1,-3.765274174E0,4.148969040E0
1.207142179E1,-1.746004614E0,-2.328671175E-1,-4.659613409E0,4.981441190E0
1.208146879E1,-1.560934391E0,-2.186583835E-1,-5.296907875E0,5.526441956E0
1.209151479E1,-1.260762167E0,3.449623346E-2,-5.490088186E0,5.633096796E0
1.210156079E1,-8.925529110E-1,3.604141867E-1,-5.598586780E0,5.680732613E0
1.211160779E1,-5.098973412E-1,5.218084484E-1,-5.631346391E0,5.678410123E0
1.212165379E1,-4.004263911E-1,5.843099213E-1,-5.441076824E0,5.486991560E0
1.213169979E1,-5.973327303E-1,4.504151148E-1,-5.375562281E0,5.427370450E0
1.214174679E1,-8.561417875E-1,3.503423578E-1,-5.382132213E0,5.461049870E0
1.215179279E1,-9.188280324E-1,3.379684800E-1,-5.432085561E0,5.519603354E0
1.216183979E1,-1.029915774E0,2.174579501E-1,-5.187849702E0,5.293562032E0
1.217188579E1,-1.421573169E0,4.511126876E-3,-5.206486532E0,5.397072599E0
1.218193179E1,-1.884352514E0,-2.329051244E-1,-5.367364485E0,5.693296998E0
1.219197879E1,-2.099674330E0,-2.221123338E-1,-5.381496620E0,5.780871219E0
1.220202479E1,-2.008401340E0,-1.557598847E-1,-5.100042064E0,5.483462970E0
1.221207079E1,-1.904225738E0,-3.627846479E-2,-4.853307105E0,5.213634207E0
1.222211779E1,-1.775997322E0,1.234879321E-1,-4.608533887E0,4.940445359E0
1.223216379E1,-9.745044889E-1,4.212638211E-1,-4.062490484E0,4.198922617E0
1.224220979E1,7.672164548E-2,7.661998433E-1,-3.299569759E0,3.388230955E0
1.225225679E1,5.610188533E-1,1.099490551E0,-3.016565691E0,3.259338920E0
1.226230279E1,6.270469281E-1,1.133958718E0,-3.014113369E0,3.280842822E0
1.227234979E1,3.316861219E-1,1.038987072E0,-3.517925257E0,3.683111176E0
1.228239579E1,-3.633007013E-1,1.021826663E0,-3.905800892E0,4.053566052E0
1.229244179E1,-9.603737421E-1,7.491242194E-1,-4.112732100E0,4.289297162E0
1.230248879E1,-1.164688613E0,3.797673011E-1,-4.704673807E0,4.861551028E0
1.231253479E1,-1.058468752E0,4.231688440E-1,-5.213249422E0,5.336421788E0
1.232258079E1,-9.261300353E-1,4.248048949E-1,-5.436883201E0,5.531534596E0
1.233262779E1,-3.889229810E-1,4.787518913E-1,-5.030283612E0,5.067959913E0
1.234267379E1,9.237220788E-1,9.693911719E-1,-3.644304637E0,3.882516969E0
1.235271979E1,2.173472769E0,1.495733551E0,-2.314986352E0,3.510037684E0
1.236276679E1,2.872284768E0,2.144002072E0,-1.204973152E0,3.781365490E0
1.237281279E1,3.139677940E0,2.536605181E0,-3.601487231E-1,4.052363571E0
1.238285879E1,2.295313979E0,2.309661877E0,2.110289548E-1,3.263056461E0
1.239290579E1,6.082618342E-1,2.082761843E0,5.536120391E-1,2.239277929E0
1.240295179E1,-9.231022009E-1,1.878949540E0,6.627725387E-1,2.195868048E0
1.241299779E1,-1.975217660E0,1.042090189E0,4.249200851E-1,2.273322205E0
1.242304479E1,-2.457316352E0,1.389128870E-1,4.982166874E-1,2.511159157E0
1.243309079E1,-2.262598954E0,-9.709418535E-2,7.701379430E-1,2.392048026E0
1.244313779E1,-9.559669150E-1,3.640301049E-2,2.271489499E0,2.464723609E0
1.245318379E1,2.765764615E-1,7.886075431E-1,4.494083996E0,4.571125393E0
1.246322979E1,6.754018667E-1,1.252881728E0,5.926876364E0,6.095387087E0
1.247327679E1,4.120252204E-1,9.680574220E-1,5.515134149E0,5.614588555E0
1.248332279E1,-4.060216648E-1,6.103347087E-1,5.767501146E0,5.813899855E0
1.249336879E1,-1.519454828E0,-6.087050897E-1,6.941591644E0,7.131967429E0
1.250341579E1,-2.012002786E0,-8.679612762E-1,4.582593884E0,5.079535284E0
1.251346179E1,-1.143463878E0,-1.240998432E0,4.620606049E0,4.919104289E0
1.252350779E1,1.861968349E-1,-1.272900256E0,5.563689428E0,5.710480223E0
1.253355479E1,1.453578927E0,-8.427720559E-1,6.451074570E0,6.666297289E0
1.254360079E1,2.606106355E0,-4.152979070E-1,7.464692327E0,7.917442404E0
1.255364679E1,2.727113021E0,-5.432846868E-1,7.303636619E0,7.815075914E0
1.256369379E1,2.048715992E0,-9.730813497E-1,6.903206427E0,7.266249617E0
1.257373979E1,1.764469975E0,-1.283594229E0,6.519703340E0,6.875136368E0
1.258378679E1,1.266407800E0,-1.305637062E0,6.157764199E0,6.420789421E0
1.259383279E1,3.325219082E-1,-1.399156845E0,5.770957435E0,5.947449909E0
1.260387879E1,1.148982992E-1,-1.550286904E0,5.709572781E0,5.917416027E0
1.261392579E1,-3.446423823E-2,-1.552018849E0,6.033236632E0,6.229758788E0
1.262397179E1,-2.089455370E-1,-1.363232721E0,6.506795611E0,6.651349549E0
1.263401779E1,-2.445091797E-2,-9.386441731E-1,6.534339505E0,6.601457680E0
1.264406479E1,3.285318048E-1,-6.348754728E-1,6.160601853E0,6.201936408E0
1.265411079E1,6.117530239E-1,-8.920120436E-1,5.530954376E0,5.635723872E0
1.266415679E1,8.550984250E-1,-1.249474556E0,4.797186699E0,5.030445329E0
1.267420379E1,1.063837007E0,-1.236045256E0,4.342879093E0,4.638982201E0
1.268424979E1,1.273146424E0,-1.046045246E0,4.151180466E0,4.466252538E0
1.269429579E1,1.770361775E0,-6.509675950E-1,4.993806342E0,5.338168357E0
1.270434279E1,2.297542646E0,-4.026568115E-2,5.968749445E0,6.395802801E0
1.271438879E1,1.894450801E0,2.942231208E-1,5.806534819E0,6.114847315E0
1.272443579E1,1.015289110E0,2.100173682E-1,5.034381925E0,5.140031191E0
1.273448179E1,2.811114706E-1,-2.318742603E-1,3.838911084E0,3.856167481E0
1.274452779E1,-1.563640300E-1,-8.243381238E-1,2.434015197E0,2.574570456E0
1.275457479E1,-4.956292214E-1,-1.413766113E0,1.122622721E0,1.872074977E0
1.276462079E1,-6.443962017E-1,-1.664419876E0,2.936717284E-1,1.808807085E0
1.277466679E1,-7.876405598E-1,-1.826713439E0,-1.111046805E-1,1.992386481E0
1.278471379E1,-8.089933489E-1,-1.764044151E0,1.979680109E-1,1.950772498E0
1.279475979E1,-4.090630940E-1,-1.084222886E0,7.564876181E-1,1.383887784E0
1.280480533E1,4.319941197E-1,-4.152458668E-2,1.084540390E0,1.168148564E0
1.281485233E1,7.810655851E-1,3.062777406E-1,1.145695834E0,1.420031142E0
1.282489833E1,6.326568930E-1,1.866758680E-1,2.926782864E-1,7.216392473E-1
1.283494433E1,5.220864104E-1,-1.554850656E-1,-7.022509653E-2,5.492553047E-1
1.284499133E1,7.005052060E-1,-2.284629947E-1,-8.162537634E-2,7.413269087E-1
1.285503733E1,1.154918574E0,2.431354129E-1,-1.838663540E-1,1.194469998E0
1.286508433E1,1.125546621E0,2.561378664E-1,-2.556940627E-1,1.182303369E0
1.287513033E1,4.264116732E-1,-2.059114534E-1,-8.873576599E-1,1.005798220E0
1.288517633E1,-3.710776808E-1,-4.608249128E-1,-1.721150731E0,1.820004969E0
1.289522333E1,-9.353122835E-1,-2.504999810E-1,-2.356368266E0,2.547553869E0
1.290526933E1,-9.834576724E-1,1.064240026E-1,-3.517783754E0,3.654219151E0
1.291531533E1,-8.694643760E-1,3.130716205E-2,-4.381267818E0,4.466817226E0
1.292536233E1,-7.250295979E-1,-2.462046164E-1,-4.638538290E0,4.701310678E0
1.293540833E1,-3.863576248E-1,-5.557895422E-2,-4.255660855E0,4.273524370E0
1.294545433E1,-2.864711747E-2,6.603909677E-1,-3.835329080E0,3.891874360E0
1.295550133E1,-8.799460217E-2,1.013452281E0,-3.247784479E0,3.403370770E0
1.296554733E1,-3.328242824E-1,1.219016410E0,-2.880079399E0,3.145096239E0
1.297559433E1,-7.450772153E-1,1.601668727E0,-2.802932405E0,3.313142441E0
1.298564033E1,-1.097702984E0,1.738423406E0,-3.102898661E0,3.722236946E0
1.299568633E1,-1.159875916E0,1.503079993E0,-3.458429253E0,3.945287633E0
1.300573333E1,-1.101093784E0,1.173126292E0,-3.725626543E0,4.058192449E0
1.301577933E1,-9.217753945E-1,8.971803975E-1,-3.753479170E0,3.967771216E0
1.302582533E1,-7.884986387E-1,8.164151466E-1,-3.613395086E0,3.787464566E0
1.303587233E1,-5.337438216E-1,8.618322247E-1,-3.317663968E0,3.469082221E0
1.304591833E1,-3.555398381E-1,8.963307971E-1,-3.361422776E0,3.496995933E0
1.305596433E1,-2.684794383E-1,8.759497422E-1,-3.431768289E0,3.551957594E0
1.306601133E1,-1.628236501E-1,8.289521617E-1,-3.427702135E0,3.530271258E0
1.307605733E1,-5.044903661E-2,7.139853770E-1,-3.516438895E0,3.588546046E0
1.308610333E1,3.719476734E-1,7.490137070E-1,-3.291126965E0,3.395715433E0
1.309615033E1,9.216099183E-1,7.419245428E-1,-2.864465579E0,3.099190204E0
1.310619633E1,9.205725492E-1,6.426879376E-1,-2.697486641E0,2.921803516E0
1.311624333E1,4.785318167E-1,3.464527899E-1,-3.127875043E0,3.183178367E0
1.312628933E1,-2.363813855E-1,-5.564795136E-3,-3.793892786E0,3.801253688E0
1.313633533E1,-7.566640578E-1,-1.402899063E-1,-4.330167831E0,4.398019463E0
1.314638233E1,-9.719887244E-1,-8.153825283E-2,-5.046938821E0,5.140330926E0
1.315642833E1,-1.379960728E0,-5.783130169E-2,-5.739615775E0,5.903458758E0
1.316647433E1,-1.829823719E0,-9.613290310E-2,-6.408040232E0,6.664868791E0
1.317652133E1,-1.946477718E0,-2.534978485E-1,-6.857932606E0,7.133321547E0
1.318656733E1,-1.687089969E0,-3.969388193E-1,-7.069435751E0,7.278788006E0
1.319661333E1,-1.632602836E0,-4.914017576E-1,-7.295418942E0,7.491996079E0
1.320666033E1,-1.818272837E0,-5.380350566E-1,-7.539364194E0,7.774162996E0
1.321670633E1,-1.354457074E0,-3.375673610E-1,-7.187629030E0,7.321920292E0
1.322675233E1,-1.619145360E-1,1.830348068E-1,-6.432350616E0,6.436990951E0
1.323679933E1,9.607874326E-1,7.268124139E-1,-5.858945752E0,5.981522724E0
1.324684533E1,1.616445810E0,9.842811066E-1,-5.090324576E0,5.430755992E0
1.325689233E1,1.985701718E0,1.303180647E0,-4.457624853E0,5.050911842E0
1.326693833E1,2.133222291E0,1.512294620E0,-3.816368313E0,4.626266255E0
1.327698433E1,1.699276590E0,1.508637772E0,-3.266345880E0,3.979012976E0
1.328703133E1,8.122809459E-1,1.434892688E0,-3.566925509E0,3.929589667E0
1.329707733E1,1.745726250E-1,7.673032129E-1,-3.609075748E0,3.693867563E0
1.330712333E1,1.531578737E-1,2.825608492E-1,-3.095919424E0,3.112557638E0
1.331717033E1,4.962272454E-2,1.941912943E-1,-2.347484592E0,2.356025590E0
1.332721633E1,-1.121332057E-1,1.455956697E-1,-9.682725996E-1,9.855575995E-1
1.333726233E1,-5.263995360E-1,-6.164631754E-1,8.735833740E-1,1.191751329E0
1.334730933E1,-4.015138270E-1,-6.642594856E-1,6.304649180E-1,9.999700147E-1
1.335735533E1,-3.271378652E-1,-7.543025136E-1,1.494120889E0,1.705399864E0
1.336740133E1,-3.344634990E-2,-6.260350674E-1,1.797150502E0,1.903362417E0
1.337744833E1,5.043325096E-1,-6.472692311E-2,2.224689555E0,2.282057070E0
1.338749433E1,1.951263226E0,5.246548730E-1,3.247624265E0,3.824886178E0
1.339754133E1,3.163867871E0,5.312557948E-1,4.836200491E0,5.803544418E0
1.340758733E1,3.647734322E0,3.389613372E-1,7.426531059E0,8.280955502E0
1.341763333E1,3.238708723E0,2.282981032E-1,7.845651875E0,8.490913235E0
1.342768033E1,2.453314225E0,-3.989531851E-1,7.045309555E0,7.470896938E0
1.343772633E1,1.295647971E0,-1.087358748E0,5.169164924E0,5.438871089E0
1.344777233E1,-4.417668635E-1,-1.950933443E0,3.535910708E0,4.062507082E0
1.345781933E1,-1.778070598E0,-1.700373235E0,3.918467715E0,4.626790835E0
1.346786533E1,-1.551303004E0,-5.052304226E-1,5.184181743E0,5.434844905E0
1.347791133E1,-3.642216743E-1,5.036008036E-1,6.276340470E0,6.307037410E0
1.348795833E1,5.879137795E-1,5.855173713E-1,7.977979043E0,8.021011334E0
1.349800433E1,8.209009112E-1,6.636993223E-1,8.497172617E0,8.562494822E0
1.350805033E1,6.931514552E-1,2.634386998E-1,7.936452702E0,7.971018780E0
1.351809733E1,3.358263160E-1,-3.674372774E-1,7.008652775E0,7.026307935E0
1.352814333E1,9.666130867E-2,-7.795127839E-1,5.483382599E0,5.539356309E0
1.353819033E1,-2.515731644E-2,-1.241209517E0,4.112184801E0,4.295497385E0
1.354823633E1,-4.345878714E-1,-1.424484644E0,3.367592758E0,3.682214565E0
1.355828233E1,-3.978738622E-1,-1.369810254E0,3.501698649E0,3.781081482E0
1.356832933E1,2.790507291E-1,-1.049239579E0,4.236282597E0,4.373198286E0
1.357837533E1,7.884247445E-1,-7.646649492E-1,5.052962038E0,5.170952661E0
1.358842133E1,1.030890724E0,-5.303640944E-1,5.670705169E0,5.787997829E0
1.359846833E1,1.116873007E0,-3.054410040E-1,5.766641605E0,5.881739107E0
1.360851433E1,9.939248463E-1,-4.262129045E-1,5.341596975E0,5.449972686E0
1.361856033E1,5.677447228E-1,-7.735644114E-1,4.538778943E0,4.639100157E0
1.362860733E1,6.885845605E-2,-8.155877656E-1,3.877923122E0,3.963358756E0
1.363865333E1,-4.770223580E-1,-6.890984577E-1,3.903206483E0,3.992170820E0
1.364869933E1,-8.803467753E-1,-6.435696977E-1,4.143102538E0,4.284214168E0
1.365874633E1,-8.561742396E-1,-6.237868130E-1,4.474407531E0,4.598093852E0
1.366879233E1,-3.804884820E-1,-6.608230770E-1,4.400037380E0,4.465622865E0
1.367883933E1,-4.147857640E-1,-1.164202271E0,3.951538982E0,4.140298840E0
1.368888533E1,-8.754273666E-1,-1.609664209E0,3.021831109E0,3.533957441E0
1.369893133E1,-1.131630649E0,-1.868096523E0,1.986386865E0,2.952305087E0
1.370897833E1,-9.247886840E-1,-2.025614666E0,1.344982976E0,2.601408867E0
1.371902433E1,-5.736293972E-1,-2.281961278E0,6.641858107E-1,2.444900969E0
1.372907033E1,-4.037844470E-1,-2.469835240E0,1.171828429E-1,2.505366203E0
1.373911733E1,-7.012839820E-2,-2.277510962E0,9.070873350E-1,2.452505170E0
1.374916333E1,5.532047074E-1,-1.651379415E0,2.355532115E0,2.929440384E0
1.375920933E1,1.342695253E0,-9.640947640E-1,3.306413341E0,3.696576583E0
1.376925633E1,2.241778042E0,-5.349559128E-2,3.571079956E0,4.216757358E0
1.377930233E1,2.413606222E0,6.829360771E-1,2.631926490E0,3.635785160E0
1.378934833E1,1.625832638E0,1.903736472E-2,1.750238290E0,2.388938731E0
1.379939533E1,6.534531002E-1,-6.977342105E-1,1.107580685E0,1.463068336E0
1.380944117E1,-9.524639212E-2,-9.701957488E-1,2.710148641E-1,1.011830382E0
1.381948817E1,-1.290502422E-1,-7.226152825E-1,-1.008423968E-1,7.409426432E-1
1.382953417E1,1.024608695E-1,-3.884743899E-1,-4.855638975E-1,6.302244679E-1
1.383958017E1,3.013844982E-2,-6.964033842E-3,-1.198709468E0,1.199108508E0
1.384962717E1,-1.366556425E-2,6.177431309E-1,-2.126658645E0,2.214603874E0
1.385967317E1,-2.140825352E-1,1.081027383E0,-3.134347326E0,3.322436559E0
1.386971917E1,-7.024562026E-1,1.187605167E0,-3.953663276E0,4.187517647E0
1.387976617E1,-7.773950686E-1,1.131599366E0,-4.674785764E0,4.872215324E0
1.388981217E1,-8.932224903E-2,1.436403024E0,-4.718516505E0,4.933115661E0
1.389985817E1,3.110386167E-2,1.917493216E0,-4.561597703E0,4.948325099E0
1.390990517E1,3.233643645E-2,2.162413200E0,-4.636032173E0,5.115649597E0
1.391995117E1,2.099055767E-1,2.088669870E0,-4.771841943E0,5.213163886E0
1.392999817E1,-6.385641888E-2,1.754071140E0,-5.390624709E0,5.669186710E0
1.394004417E1,-8.466767534E-1,1.369434863E0,-6.500326837E0,6.696750134E0
1.395009017E1,-1.578817662E0,1.120083275E0,-7.070474217E0,7.330679191E0
1.396013717E1,-1.816120039E0,9.863586223E-1,-7.051815167E0,7.348421087E0
1.397018317E1,-1.623395372E0,9.121691501E-1,-6.776762727E0,7.027942669E0
1.398022917E1,-9.864783441E-1,1.011118657E0,-6.010111479E0,6.173891840E0
1.399027617E1,-2.671558114E-2,1.413853236E0,-4.931516538E0,5.130258284E0
1.400032217E1,8.228359010E-1,1.831416939E0,-4.034988105E0,4.506914237E0
1.401036817E1,1.587338955E0,2.128164888E0,-3.310263147E0,4.243415235E0
1.402041517E1,1.951782751E0,2.164881894E0,-2.533610237E0,3.862039662E0
1.403046117E1,1.600047732E0,2.076498891E0,-2.254374699E0,3.457485455E0
1.404050717E1,7.474997898E-1,1.964456298E0,-2.597526151E0,3.341404882E0
1.405055417E1,-2.853309859E-1,1.599801126E0,-2.932410225E0,3.352582160E0
1.406060017E1,-1.207291865E0,1.401727281E0,-3.614984944E0,4.060850793E0
1.407064717E1,-1.949382176E0,1.196171923E0,-4.582386893E0,5.121443915E0
1.408069317E1,-2.149659399E0,8.320313054E-1,-5.200901272E0,5.688821114E0
1.409073917E1,-1.771838636E0,7.450557268E-1,-5.592498075E0,5.913590695E0
1.410078617E1,-7.423753631E-1,8.770361549E-1,-5.359957232E0,5.481738331E0
1.411083217E1,2.713746871E-1,8.539028156E-1,-4.416941096E0,4.506901694E0
1.412087817E1,7.409875265E-1,9.802892125E-1,-3.740871989E0,3.937531294E0
1.413092517E1,2.680924622E-1,1.263602014E0,-3.327711824E0,3.569625975E0
1.414097117E1,-3.111511390E-1,1.396329716E0,-3.145938846E0,3.455934451E0
1.415101717E1,-8.180810183E-1,1.140542682E0,-3.652691883E0,3.913087292E0
1.416106417E1,-1.592586978E0,5.583161241E-1,-4.440769084E0,4.750629457E0
1.417111017E1,-2.072390052E0,-3.355132341E-3,-5.035147911E0,5.444954203E0
1.418115617E1,-2.118931111E0,-1.599342120E-1,-5.571354543E0,5.962838204E0
1.419120317E1,-1.740108282E0,-2.778889239E-2,-5.419514632E0,5.692089941E0
1.420124917E1,-1.096757197E0,-2.603344131E-1,-4.924340250E0,5.051710330E0
1.421129617E1,-7.310648563E-2,-4.080058444E-1,-4.401216179E0,4.420691934E0
1.422134217E1,5.482533948E-1,-3.884726357E-1,-3.525148907E0,3.588616390E0
1.423138817E1,6.776042204E-1,-8.280826807E-3,-2.845278525E0,2.924863405E0
1.424143517E1,6.879876329E-1,2.031369495E-1,-2.155239835E0,2.271486375E0
1.425148117E1,1.186483890E0,2.604379088E-1,-6.546133339E-1,1.379887873E0
1.426152717E1,1.672279411E0,3.515053689E-1,1.078952206E0,2.020943422E0
1.427157417E1,2.020061419E0,3.648399442E-1,2.619100623E0,3.327678529E0
1.428162017E1,2.399117260E0,2.303107148E-1,3.407166713E0,4.173438830E0
1.429166617E1,2.834404458E0,-2.193506938E-1,4.640156214E0,5.441783995E0
1.430171317E1,2.662415042E0,-5.186638159E-1,5.907908581E0,6.500834548E0
1.431175917E1,1.609043820E0,-6.860567361E-1,6.930024682E0,7.147372800E0
1.432180517E1,1.113928203E0,-5.588394499E-1,7.471889080E0,7.575108184E0
1.433185217E1,7.819091190E-1,-5.890800798E-1,7.580636766E0,7.643588881E0
1.434189817E1,-4.625896756E-2,-9.837460864E-1,7.886457839E0,7.947711211E0
1.435194517E1,6.887100929E-2,-2.479921103E-1,8.044448436E0,8.048564714E0
1.436199117E1,7.485099694E-1,1.809625536E-1,7.915315018E0,7.952686744E0
1.437203717E1,1.108437741E0,1.410845429E-1,8.020184246E0,8.097647461E0
1.438208417E1,1.172834662E0,7.825328708E-3,6.837134644E0,6.937003137E0
1.439213017E1,1.723069495E0,-3.301343805E-1,5.994939709E0,6.246379696E0
1.440217617E1,2.126325646E0,-3.529443687E-1,5.099811099E0,5.536596764E0
1.441222317E1,1.759056476E0,-4.713966787E-1,4.032313589E0,4.424482726E0
1.442226917E1,8.995941281E-1,-1.085356076E0,2.864870791E0,3.192922181E0
1.443231517E1,-1.424491368E-1,-1.729464887E0,1.509210214E0,2.299794779E0
1.444236217E1,-1.081873840E0,-1.997519379E0,5.333871414E-1,2.333460203E0
1.445240817E1,-1.646153759E0,-2.046412042E0,-4.235543948E-2,2.626674405E0
1.446245517E1,-1.867707099E0,-1.964599555E0,-6.334996229E-1,2.783756992E0
1.447250117E1,-1.845612371E0,-1.804084715E0,-1.002822627E0,2.768873400E0
1.448254717E1,-1.172660122E0,-1.367965457E0,-1.085420396E0,2.103473007E0
1.449259417E1,-4.572454666E-1,-1.021406833E0,-7.534499896E-1,1.349085698E0
1.450264017E1,1.853764705E-2,-6.998690289E-1,-3.890468323E-1,8.009480256E-1
1.451268617E1,6.166213426E-1,-2.301961094E-1,-2.056407273E-2,6.585096886E-1
1.452273317E1,1.107298484E0,1.803667223E-1,4.696805209E-1,1.216240880E0
1.453277917E1,1.102651482E0,2.144817173E-1,4.799049622E-1,1.221536521E0
1.454282517E1,7.939437121E-1,-1.391637325E-4,9.616623223E-2,7.997465734E-1
1.455287217E1,1.278588720E-1,-4.813597494E-1,-7.993200442E-2,5.044246473E-1
1.456291817E1,-5.329336898E-1,-8.837610376E-1,-3.468077159E-1,1.088727460E0
1.457296417E1,-9.131247313E-1,-1.010325775E0,-4.763779217E-1,1.442737284E0
1.458301117E1,-1.068092903E0,-9.660477340E-1,-2.725246882E-1,1.465721795E0
1.459305717E1,-8.063772315E-1,-9.022914487E-1,2.056501194E-1,1.227463266E0
1.460310417E1,-3.378557384E-1,-7.884251100E-1,7.886589986E-1,1.165222584E0
1.461315017E1,7.632471090E-2,-4.625264525E-1,1.256229844E0,1.340846599E0
1.462319617E1,4.022031406E-1,-1.537987286E-1,1.652740647E0,1.707914829E0
1.463324317E1,8.961786964E-1,1.587752938E-2,2.116054720E0,2.298059166E0
1.464328917E1,1.022606389E0,1.245234740E-1,2.207567153E0,2.436099887E0
1.465333517E1,5.626756619E-1,1.812636852E-3,2.014520159E0,2.091625840E0
1.466338217E1,4.639995854E-1,-1.241346341E-1,2.223790253E0,2.275071012E0
1.467342817E1,7.877564809E-1,3.205256510E-1,2.453698679E0,2.596908580E0
1.468347417E1,8.137114672E-1,7.559210229E-1,2.693093628E0,2.913124823E0
1.469352117E1,1.264356012E0,9.960632461E-1,2.675504619E0,3.122348969E0
1.470356717E1,1.684656943E0,5.599381417E-1,2.536977063E0,3.096425739E0
1.471361317E1,2.091784389E0,1.902491015E-1,1.969465608E0,2.879331769E0
1.472366017E1,1.290048385E0,-1.042669648E-1,2.115989816E0,2.480425233E0
1.473370617E1,6.573137243E-1,8.169495821E-1,1.885638170E0,2.157567904E0
1.474375317E1,5.893361147E-1,1.451325118E0,3.208176609E0,3.570162295E0
1.475379917E1,5.920317543E-1,1.265081359E0,4.027553371E0,4.262876798E0
1.476384517E1,7.657349166E-1,8.422738731E-1,3.402987124E0,3.588327828E0
1.477389217E1,7.684760182E-1,1.547974330E-1,2.539605387E0,2.657839942E0
1.478393817E1,6.807259027E-1,-2.956089109E-1,1.435218962E0,1.615743127E0
1.479398417E1,6.116336311E-1,-1.095091106E0,7.762523764E-1,1.475089143E0
1.480403117E1,6.976022827E-1,-1.986910191E0,8.132629126E-1,2.257400633E0
1.481407717E1,5.453189331E-1,-1.843917702E0,-7.271657685E-2,1.924238273E0
1.482412317E1,2.398092243E-1,-1.091249485E0,-1.358828598E0,1.759189888E0
1.483417017E1,-2.771696798E-1,-4.931021279E-1,-2.732877499E0,2.790804931E0
1.484421617E1,-3.762575830E-1,-4.212421864E-1,-2.163027157E0,2.235553898E0
1.485426317E1,-4.250555943E-1,-3.787574869E-1,-1.357907662E0,1.472427489E0
1.486430917E1,-8.178497609E-1,-3.140931290E-1,-1.611908956E0,1.834607099E0
1.487435517E1,-1.168400718E0,1.022666323E-1,-1.712745359E0,2.075840882E0
1.488440217E1,-1.442292339E0,4.184758687E-1,-1.419376516E0,2.066387897E0
1.489444817E1,-1.677305385E0,5.728330064E-1,-1.472545248E0,2.304317798E0
1.490449417E1,-1.608240851E0,4.533855003E-1,-1.807274956E0,2.461349185E0
1.491454117E1,-2.132930807E0,2.587550801E-1,-1.618848431E0,2.690170675E0
1.492458717E1,-2.400686068E0,2.694572389E-1,-1.229559524E0,2.710667339E0
1.493463317E1,-1.623389671E0,2.931676984E-2,-1.624016200E0,2.296449894E0
1.494468017E1,-1.050173380E0,-4.173239672E-1,-1.683329186E0,2.027466540E0
1.495472617E1,-1.074759971E0,-7.883029032E-1,-1.853671442E0,2.283118105E0
1.496477217E1,-1.114012842E0,-6.787588263E-1,-2.514254783E0,2.832528071E0
1.497481917E1,-1.195074181E0,-2.226023304E-1,-2.650943974E0,2.916377556E0
1.498486517E1,-1.230879679E0,-3.426333886E-1,-2.314648383E0,2.643872077E0
1.499491217E1,-9.366450832E-1,-7.178638351E-1,-2.279497261E0,2.566854157E0
1.500495817E1,-5.925298639E-1,-9.013114554E-1,-2.241339501E0,2.487379492E0
1.501500417E1,-4.530206341E-1,-6.891972756E-1,-2.151028671E0,2.303724142E0
1.502505117E1,-7.237325393E-1,2.223783821E-1,-9.874847960E-1,1.244334021E0
1.503509717E1,-8.415738883E-1,6.900509691E-1,2.013804460E-1,1.106784095E0
1.504514317E1,-3.279227077E-1,7.704852676E-1,6.839359510E-1,1.081179557E0
1.505519017E1,4.235694879E-1,3.042990428E-1,7.785088170E-1,9.370618958E-1
1.506523617E1,1.178169734E0,1.957595176E-1,-2.276362167E-1,1.215822339E0
1.507528217E1,1.894012991E0,7.313855213E-1,-3.305050939E-1,2.057047303E0
1.508532917E1,2.002043370E0,1.039843104E0,5.965565125E-2,2.256769845E0
1.509537517E1,1.530274224E0,8.798018879E-1,-6.151214221E-2,1.766231668E0
1.510542117E1,1.025969123E0,5.833275890E-1,-8.388836575E-1,1.447967371E0
1.511546817E1,4.329062122E-1,5.255945206E-2,-1.413535148E0,1.479274112E0
1.512551417E1,-1.447138731E-1,-2.676867020E-1,-1.725936677E0,1.752556901E0
1.513556117E1,-4.901834171E-1,-3.550025886E-1,-1.700867910E0,1.805341593E0
1.514560717E1,-5.957990057E-1,-2.137999320E-1,-1.587528405E0,1.709073814E0
1.515565317E1,-8.228849445E-1,1.640079671E-1,-7.954002535E-1,1.156157346E0
1.516570017E1,-4.996281322E-2,3.261828321E-1,3.320189381E-1,4.681112025E-1
1.517574617E1,3.528783683E-1,6.721929878E-1,5.258786952E-1,9.235339505E-1
1.518579217E1,8.231618833E-2,8.603066862E-1,3.102651397E-2,8.647925726E-1
1.519583917E1,-4.575775519E-1,9.369829792E-1,-3.327726442E-1,1.094555596E0
1.520588517E1,-1.068006364E0,6.250808018E-1,-4.950369716E-1,1.332826022E0
1.521593117E1,-7.777216356E-1,3.219167036E-1,-6.562727737E-1,1.067321535E0
1.522597817E1,-5.427386300E-1,4.461220890E-1,-9.051402122E-1,1.145804932E0
1.523602417E1,-5.668024074E-1,3.299004918E-1,-6.779899174E-1,9.432760103E-1
1.524607117E1,-2.625713019E-1,4.267362303E-1,-2.781760222E-1,5.730876007E-1
1.525611717E1,-3.817542581E-1,3.731827515E-1,1.093937852E-1,5.449483277E-1
1.526616317E1,-9.449900101E-1,2.008004022E-1,1.902122823E-1,9.846357870E-1
1.527621017E1,-1.060707943E0,-7.092204809E-2,4.091671014E-1,1.139100081E0
1.528625617E1,-7.554693255E-1,-2.871327871E-1,2.724749869E-1,8.528902378E-1
1.529630217E1,-4.862029616E-1,-4.204194832E-1,-3.218465370E-1,7.188400762E-1
1.530634917E1,2.337757017E-2,-1.451302314E-1,-5.788299473E-1,5.972046573E-1
1.531639517E1,6.558865651E-1,2.175351334E-1,-3.320791644E-1,7.666715672E-1
1.532644117E1,6.088226187E-1,4.531638908E-1,9.679013014E-2,7.651083729E-1
1.533648817E1,6.239627411E-1,4.022638786E-1,9.616506279E-1,1.214873516E0
1.534653417E1,6.528120992E-1,1.855514485E-1,1.156743563E0,1.341137072E0
1.535658017E1,1.243865760E-1,-1.267196297E0,1.978953300E0,2.353192436E0
1.536662717E1,2.325047363E-1,1.119962822E0,6.736694098E-1,1.327480941E0
1.537667317E1,3.470937544E-1,1.626811169E0,-2.945535068E-1,1.689304716E0
1.538672017E1,2.065020587E-1,4.298522115E-1,-1.078522582E-2,4.770035063E-1
1.539676617E1,-7.422280133E-1,1.192533785E-1,6.399836004E-1,9.872703787E-1
1.540681217E1,-1.275639969E0,-4.119275719E-1,1.048154921E0,1.701637562E0
1.541685917E1,-8.029694742E-1,-6.481837356E-1,7.698800808E-1,1.287484940E0
1.542690517E1,-2.412875466E-1,-6.580000412E-1,6.759813988E-1,9.737220271E-1
1.543695117E1,-3.015376952E-1,-9.543989110E-1,1.275302292E0,1.621171860E0
1.544699817E1,-2.234087711E-1,-5.339039987E-1,1.625682072E0,1.725632394E0
1.545704417E1,6.686985455E-1,-1.685243565E-1,1.716052544E0,1.849430869E0
1.546709017E1,1.249412575E0,2.682942277E-1,1.019584841E0,1.634798710E0
1.547713717E1,1.767923925E0,1.165289853E0,-4.730081713E-1,2.169606457E0
1.548718317E1,2.059950978E0,1.633562365E0,-6.314794099E-1,2.703828818E0
1.549722917E1,8.223573795E-1,1.006799904E0,-1.728577280E0,2.162844682E0
1.550727617E1,9.150834024E-1,-1.236048764E-1,-2.533122579E0,2.696176144E0
1.551732217E1,3.272523975E-1,-1.171255767E-2,-2.210857966E0,2.234977463E0
1.552736917E1,1.578406530E-1,5.587996888E-1,-1.956025783E0,2.040393988E0
1.553741517E1,4.776780136E-1,2.252306539E-1,-2.241616659E0,2.302987273E0
1.554746117E1,-3.355166694E-1,-4.169725496E-1,-1.241141689E0,1.351617636E0
1.555750817E1,1.721223675E-1,-3.560287750E-1,-9.063486855E-1,9.888632553E-1
1.556755417E1,-3.239892492E-1,-6.956607878E-1,-4.078151886E-1,8.690375097E-1
1.557760017E1,-1.090032533E0,-1.190303072E0,-6.044091038E-1,1.723456612E0
1.558764717E1,-1.756537788E0,-1.437996975E0,-1.053515064E0,2.502629475E0
1.559769317E1,-2.389014587E0,-1.541109114E0,-1.615765779E0,3.270031659E0
1.560773917E1,-2.125149040E0,-1.406675195E0,-1.544096457E0,2.979803251E0
1.561778617E1,-9.993566173E-1,-4.128736514E-1,-1.168646155E0,1.592140740E0
1.562783217E1,3.338776217E-1,8.642746067E-1,-4.208024758E-1,1.017604828E0
1.563787917E1,1.183608595E0,4.835056776E-1,6.689583081E-1,1.442987271E0
1.564792517E1,1.710041314E0,-3.457037616E-1,1.012948251E0,2.017378632E0
1.565797117E1,1.263023139E0,-4.799499857E-1,1.744419726E0,2.206485808E0
1.566801817E1,6.333084921E-1,-7.623991531E-1,2.186062848E0,2.400250589E0
1.567806417E1,2.506802215E-1,-1.667860377E0,2.567421761E0,3.071848517E0
1.568811017E1,3.136150461E-1,-6.348421437E-1,3.204098761E0,3.281406378E0
1.569815717E1,6.350248691E-1,1.780614576E0,3.063172678E0,3.599565488E0
1.570820317E1,1.330500885E0,2.236745929E0,1.823212711E0,3.177635842E0
1.571824917E1,1.276904283E0,1.264720001E0,-4.207820106E-1,1.845821966E0
1.572829617E1,6.012614380E-1,7.359907883E-1,-3.121791015E0,3.263246374E0
1.573834217E1,3.714845739E-1,3.281919354E-1,-4.104764684E0,4.134586297E0
1.574838817E1,7.545990405E-1,-3.582910627E-1,-4.070721025E0,4.155545916E0
1.575843517E1,7.771433459E-1,1.579239392E-1,-2.681331954E0,2.796146062E0
1.576848117E1,5.596128172E-1,5.776405871E-1,-1.135728743E0,1.391659057E0
1.577852717E1,1.875067574E-1,4.877542645E-1,3.036839888E-1,6.043897514E-1
1.578857417E1,-2.133084004E-1,3.534133154E-1,1.276267083E0,1.341364645E0
1.579862017E1,-1.888192380E-1,3.948630577E-1,1.339966650E0,1.409638309E0
1.580866692E1,3.126286939E-3,8.501711226E-1,1.353665507E0,1.598502742E0
1.581871292E1,-1.843551812E-1,1.098112947E0,1.150155505E0,1.600842454E0
1.582875892E1,-1.533128250E-1,1.175680940E0,5.017975223E-1,1.287451455E0
1.583880592E1,-1.976930456E-1,6.768467867E-1,-5.777429865E-1,9.115871167E-1
1.584885192E1,-2.184088536E-1,2.954831958E-1,-1.458819494E0,1.504382619E0
1.585889792E1,-1.169720873E-2,3.642996615E-1,-1.673752617E0,1.712979536E0
1.586894492E1,1.180639087E-1,1.558230346E-1,-1.403600144E0,1.417149699E0
1.587899092E1,4.484257458E-1,1.340292925E-1,-7.038282517E-1,8.452358894E-1
1.588903692E1,8.335911964E-1,3.981532860E-1,-8.401751612E-1,1.248717191E0
1.589908392E1,8.858659621E-1,5.638119221E-1,-1.119608919E0,1.534980951E0
1.590912992E1,7.831232934E-1,8.113111120E-1,-1.073373231E0,1.556803747E0
1.591917692E1,3.619531008E-1,6.765088177E-1,-1.321875365E0,1.528407245E0
1.592922292E1,-3.129489751E-1,8.280242085E-3,-1.690050561E0,1.718800896E0
1.593926892E1,-1.597830176E0,2.484288973E-1,-8.707118795E-1,1.836550398E0
1.594931592E1,-2.008306030E0,4.289341986E-2,-1.468922898E0,2.488547254E0
1.595936192E1,-2.358830236E0,-1.245731753E-1,-1.043284848E0,2.582255184E0
1.596940792E1,-1.522483686E0,5.824750650E-1,-5.962382412E-1,1.735722851E0
1.597945492E1,-3.798343979E-1,1.092042367E0,-6.971208376E-1,1.350114130E0
1.598950092E1,7.355931046E-1,1.117495882E0,-1.356301285E0,1.905110873E0
1.599954692E1,1.233396467E0,4.763305593E-1,-1.847169338E0,2.271605646E0
1.600959392E1,1.307666631E0,6.365390056E-1,-1.100916760E0,1.824059109E0
1.601963992E1,1.160300863E0,1.918182603E0,-5.163952424E-1,2.300518776E0
1.602968592E1,8.079410693E-1,2.434347319E0,-1.285024458E0,2.868815696E0
1.603973292E1,5.927198254E-1,2.185904388E0,-5.741813743E-1,2.336488613E0
1.604977892E1,1.056616427E0,1.776522110E0,1.875570434E0,2.791098983E0
1.605982592E1,1.479846082E0,1.044313885E0,1.580786419E0,2.404042766E0
1.606987192E1,1.983899898E0,5.979456282E-1,1.888783826E0,2.803730037E0
1.607991792E1,2.179105246E0,1.053823797E0,2.251599026E0,3.305864855E0
1.608996492E1,2.063928400E0,1.289215742E0,1.860257600E0,3.063076233E0
1.610001092E1,2.310599332E0,1.447777612E0,1.339411018E0,3.037918887E0
1.611005692E1,2.076490851E0,1.571564337E0,4.000056839E-1,2.634697946E0
1.612010392E1,1.610698874E0,1.529285460E0,2.866056606E-2,2.221235311E0
1.613014992E1,8.706334537E-1,1.448313802E0,-2.518087341E-1,1.708514887E0
1.614019592E1,2.990499973E-1,1.402502621E0,3.896337466E-1,1.486021184E0
1.615024292E1,2.329559952E-1,1.225962317E0,1.790946606E0,2.182828863E0
1.616028892E1,5.594346964E-1,7.330970013E-1,2.844082770E0,2.989850363E0
1.617033592E1,8.853393473E-1,2.349183208E-1,3.746905730E0,3.857241881E0
1.618038192E1,1.219518978E0,2.337254888E-1,3.893012447E0,4.086245227E0
1.619042792E1,8.894992027E-1,4.973290801E-1,2.952177322E0,3.123122794E0
1.620047492E1,-2.831502485E-1,3.072863853E-1,2.099799899E0,2.140971415E0
1.621052092E1,-1.120044537E0,-2.997610188E-1,1.027564390E0,1.549272412E0
1.622056692E1,-1.465632378E0,-1.254416623E0,-2.538866884E-1,1.945789757E0
1.623061392E1,-1.331420213E0,-1.641041538E0,-5.308777723E-1,2.178882357E0
1.624065992E1,-1.075243609E0,-1.745959298E0,-1.473767316E-1,2.055782720E0
1.625070592E1,-1.123014776E0,-2.169318177E0,8.954206780E-2,2.444406128E0
1.626075292E1,-9.426715160E-1,-2.355644966E0,-4.173274755E-2,2.537604070E0
1.627079892E1,-1.063142650E0,-1.977541782E0,-1.191036898E-1,2.248361511E0
1.628084492E1,-1.127364228E0,-1.484435561E0,1.338649857E-1,1.868801453E0
1.629089192E1,-1.007647019E0,-7.596439451E-1,3.590815332E-1,1.312002662E0
1.630093792E1,-1.106128529E0,-3.102181792E-1,4.223155890E-1,1.223971445E0
1.631098492E1,-1.073822005E0,7.452861071E-3,5.247062554E-1,1.195184462E0
1.632103092E1,-8.575882425E-1,2.221626198E-1,9.888923670E-1,1.327675388E0
1.633107692E1,-4.905000439E-1,5.831135809E-2,1.376391295E0,1.462341788E0
1.634112392E1,-1.246567174E-1,-3.028541958E-1,1.342904876E0,1.382263892E0
1.635116992E1,2.719194283E-1,-6.922419208E-1,5.675594026E-1,9.355547701E-1
1.636121592E1,-2.329043204E-1,-7.232730943E-1,-2.374682915E-1,7.960901839E-1
1.637126292E1,-1.197700458E0,-2.276233345E-1,-1.218907067E0,1.723958586E0
